File: Chapter4_Crystallinity-measurement/data/DSC/500907_2.csv
Time,Unsubtracted Heat Flow,Baseline Heat Flow,Program Temperature,Sample Temperature,Approx. Gas Flow,Heat Flow Calibration,Uncorrected Heat Flow,
0.0,1.7466,0.0,30.0,30.729,0.0,1.0,1.7466,
0.666667,1.9599,0.0,30.0,30.741,0.0,1.0,1.9599,
1.333333,1.9516,0.0,30.0,30.75,0.0,1.0,1.9516,
2.0,1.9424,0.0,30.0,30.75,0.0,1.0,1.9424,
2.666667,1.9344,0.0,30.0,30.754,0.0,1.0,1.9344,
3.333333,1.9262,0.0,30.0,30.762,0.0,1.0,1.9262,
4.0,1.9186,0.0,30.0,30.77,0.0,1.0,1.9186,
4.666667,1.9113,0.0,30.0,30.775,0.0,1.0,1.9113,
5.333333,1.646,0.0,33.254,33.57,0.0,1.0,1.646,
6.0,1.8612,0.0,39.912,40.191,0.0,1.0,1.8612,
6.666667,2.0513,0.0,46.566,46.825,0.0,1.0,2.0513,
7.333333,2.2423,0.0,53.22,53.462,0.0,1.0,2.2423,
8.0,2.4315,0.0,59.879,60.112,0.0,1.0,2.4315,
8.666667,2.6223,0.0,66.533,66.766,0.0,1.0,2.6223,
9.333333,2.8082,0.0,73.191,73.433,0.0,1.0,2.8082,
10.0,3.0046,0.0,79.845,80.091,0.0,1.0,3.0046,
10.6667,3.2001,0.0,86.5,86.754,0.0,1.0,3.2001,
11.3333,3.4049,0.0,93.158,93.395,0.0,1.0,3.4049,
12.0,3.6028,0.0,99.812,100.041,0.0,1.0,3.6028,
12.6667,3.8273,0.0,106.466,106.695,0.0,1.0,3.8273,
13.3333,4.0438,0.0,113.125,113.345,0.0,1.0,4.0438,
14.0,4.267,0.0,119.779,120.004,0.0,1.0,4.267,
14.6667,4.4974,0.0,126.437,126.658,0.0,1.0,4.4974,
15.3333,4.7202,0.0,133.091,133.32,0.0,1.0,4.7202,
16.0,4.9642,0.0,139.745,139.987,0.0,1.0,4.9642,
16.6667,5.2513,0.0,146.404,146.633,0.0,1.0,5.2513,
17.3333,5.4822,0.0,153.058,153.283,0.0,1.0,5.4822,
18.0,5.7109,0.0,159.712,159.941,0.0,1.0,5.7109,
18.6667,5.9051,0.0,166.37,166.6,0.0,1.0,5.9051,
19.3333,5.5669,0.0,173.025,173.254,0.0,1.0,5.5669,
20.0,6.4173,0.0,179.683,179.908,0.0,1.0,6.4173,
20.6667,6.6994,0.0,186.337,186.57,0.0,1.0,6.6994,
21.3333,6.9688,0.0,192.991,193.233,0.0,1.0,6.9688,
22.0,7.2692,0.0,199.65,199.879,0.0,1.0,7.2692,
22.6667,7.5641,0.0,206.304,206.525,0.0,1.0,7.5641,
23.3333,7.8624,0.0,212.958,213.179,0.0,1.0,7.8624,
24.0,8.1721,0.0,219.616,219.833,0.0,1.0,8.1721,
24.6667,8.4927,0.0,226.27,226.491,0.0,1.0,8.4927,
25.3333,8.8218,0.0,232.929,233.15,0.0,1.0,8.8218,
26.0,9.162,0.0,239.583,239.812,0.0,1.0,9.162,
26.6667,9.5111,0.0,246.237,246.479,0.0,1.0,9.5111,
27.3333,9.8642,0.0,252.895,253.137,0.0,1.0,9.8642,
28.0,10.2263,0.0,259.55,259.775,0.0,1.0,10.2263,
28.6667,10.6034,0.0,266.204,266.433,0.0,1.0,10.6034,
29.3333,10.9945,0.0,272.862,273.087,0.0,1.0,10.9945,
30.0,11.4094,0.0,279.516,279.745,0.0,1.0,11.4094,
30.6667,11.8464,0.0,286.175,286.395,0.0,1.0,11.8464,
31.3333,12.2893,0.0,292.829,293.062,0.0,1.0,12.2893,
32.0,12.7406,0.0,299.483,299.729,0.0,1.0,12.7406,
32.6667,13.2081,0.0,306.141,306.391,0.0,1.0,13.2081,
33.3333,13.7014,0.0,312.795,313.05,0.0,1.0,13.7014,
34.0,14.2279,0.0,319.45,319.704,0.0,1.0,14.2279,
34.6667,14.793,0.0,326.108,326.354,0.0,1.0,14.793,
35.3333,15.4288,0.0,332.762,333.004,0.0,1.0,15.4288,
36.0,16.0852,0.0,339.42,339.666,0.0,1.0,16.0852,
36.6667,16.2248,0.0,346.075,346.32,0.0,1.0,16.2248,
37.3333,16.6861,0.0,352.729,352.987,0.0,1.0,16.6861,
38.0,17.2346,0.0,359.387,359.654,0.0,1.0,17.2346,
38.6667,17.7802,0.0,366.041,366.304,0.0,1.0,17.7802,
39.3333,18.3457,0.0,372.695,372.954,0.0,1.0,18.3457,
40.0,18.9171,0.0,379.354,379.612,0.0,1.0,18.9171,
40.2443,18.89,0.0,378.191,378.908,0.0,1.0,18.89,
40.4443,18.6105,0.0,376.195,376.92,0.0,1.0,18.6105,
40.6443,18.4007,0.0,374.2,374.925,0.0,1.0,18.4007,
40.8443,18.191,0.0,372.204,372.933,0.0,1.0,18.191,
41.0443,17.9866,0.0,370.204,370.945,0.0,1.0,17.9866,
41.2443,17.7898,0.0,368.208,368.95,0.0,1.0,17.7898,
41.4443,17.5875,0.0,366.212,366.954,0.0,1.0,17.5875,
41.6443,17.3922,0.0,364.216,364.966,0.0,1.0,17.3922,
41.8443,17.2004,0.0,362.22,362.97,0.0,1.0,17.2004,
42.0443,17.0096,0.0,360.22,360.979,0.0,1.0,17.0096,
42.2443,16.8264,0.0,358.225,358.991,0.0,1.0,16.8264,
42.4443,16.6411,0.0,356.229,356.983,0.0,1.0,16.6411,
42.6443,16.4591,0.0,354.233,354.991,0.0,1.0,16.4591,
42.8443,16.2791,0.0,352.237,352.995,0.0,1.0,16.2791,
43.0443,16.1007,0.0,350.237,351.004,0.0,1.0,16.1007,
43.2443,15.9259,0.0,348.241,349.0,0.0,1.0,15.9259,
43.4443,15.7522,0.0,346.245,347.004,0.0,1.0,15.7522,
43.6443,15.581,0.0,344.25,345.004,0.0,1.0,15.581,
43.8443,15.4159,0.0,342.25,343.012,0.0,1.0,15.4159,
44.0443,15.2494,0.0,340.254,341.016,0.0,1.0,15.2494,
44.2443,15.0856,0.0,338.258,339.02,0.0,1.0,15.0856,
44.4443,14.921,0.0,336.262,337.029,0.0,1.0,14.921,
44.6443,14.7598,0.0,334.266,335.025,0.0,1.0,14.7598,
44.8443,14.6023,0.0,332.266,333.041,0.0,1.0,14.6023,
45.0443,14.4448,0.0,330.27,331.045,0.0,1.0,14.4448,
45.2443,14.2929,0.0,328.275,329.054,0.0,1.0,14.2929,
45.4443,14.1364,0.0,326.279,327.058,0.0,1.0,14.1364,
45.6443,13.9862,0.0,324.283,325.07,0.0,1.0,13.9862,
45.8443,13.8438,0.0,322.283,323.075,0.0,1.0,13.8438,
46.0443,13.6913,0.0,320.287,321.083,0.0,1.0,13.6913,
46.2443,13.5449,0.0,318.291,319.091,0.0,1.0,13.5449,
46.4443,13.4012,0.0,316.295,317.091,0.0,1.0,13.4012,
46.6443,13.258,0.0,314.295,315.104,0.0,1.0,13.258,
46.8443,13.1167,0.0,312.3,313.112,0.0,1.0,13.1167,
47.0443,12.9754,0.0,310.304,311.108,0.0,1.0,12.9754,
47.2443,12.8334,0.0,308.308,309.12,0.0,1.0,12.8334,
47.4443,12.6955,0.0,306.312,307.125,0.0,1.0,12.6955,
47.6443,12.5597,0.0,304.312,305.125,0.0,1.0,12.5597,
47.8443,12.4111,0.0,302.316,303.141,0.0,1.0,12.4111,
48.0443,12.1978,0.0,300.32,301.145,0.0,1.0,12.1978,
48.2443,11.6488,0.0,298.325,299.15,0.0,1.0,11.6488,
48.4443,10.3333,0.0,296.329,297.15,0.0,1.0,10.3333,
48.6443,10.6301,0.0,294.329,295.145,0.0,1.0,10.6301,
48.8443,11.3982,0.0,292.333,293.154,0.0,1.0,11.3982,
49.0443,11.4603,0.0,290.337,291.154,0.0,1.0,11.4603,
49.2443,11.3889,0.0,288.341,289.162,0.0,1.0,11.3889,
49.4443,11.2909,0.0,286.345,287.162,0.0,1.0,11.2909,
49.6443,11.1626,0.0,284.345,285.17,0.0,1.0,11.1626,
49.8443,11.0709,0.0,282.35,283.17,0.0,1.0,11.0709,
50.0443,10.9569,0.0,280.354,281.179,0.0,1.0,10.9569,
50.2443,10.8409,0.0,278.358,279.183,0.0,1.0,10.8409,
50.4443,10.7254,0.0,276.358,277.187,0.0,1.0,10.7254,
50.6443,10.613,0.0,274.362,275.195,0.0,1.0,10.613,
50.8443,10.4967,0.0,272.366,273.204,0.0,1.0,10.4967,
51.0443,10.3826,0.0,270.37,271.204,0.0,1.0,10.3826,
51.2443,10.2678,0.0,268.375,269.208,0.0,1.0,10.2678,
51.4443,10.1547,0.0,266.375,267.212,0.0,1.0,10.1547,
51.6443,10.0417,0.0,264.379,265.22,0.0,1.0,10.0417,
51.8443,9.9305,0.0,262.383,263.233,0.0,1.0,9.9305,
52.0443,9.8187,0.0,260.387,261.241,0.0,1.0,9.8187,
52.2443,9.7088,0.0,258.391,259.245,0.0,1.0,9.7088,
52.4443,9.5999,0.0,256.391,257.254,0.0,1.0,9.5999,
52.6443,9.4916,0.0,254.395,255.27,0.0,1.0,9.4916,
52.8443,9.3846,0.0,252.4,253.27,0.0,1.0,9.3846,
53.0443,9.2749,0.0,250.404,251.287,0.0,1.0,9.2749,
53.2443,9.1671,0.0,248.404,249.295,0.0,1.0,9.1671,
53.4443,9.0636,0.0,246.408,247.304,0.0,1.0,9.0636,
53.6443,8.9573,0.0,244.412,245.308,0.0,1.0,8.9573,
53.8443,8.8548,0.0,242.416,243.308,0.0,1.0,8.8548,
54.0443,8.7507,0.0,240.42,241.312,0.0,1.0,8.7507,
54.2443,8.6495,0.0,238.42,239.308,0.0,1.0,8.6495,
54.4443,8.5463,0.0,236.425,237.32,0.0,1.0,8.5463,
54.6443,8.4444,0.0,234.429,235.32,0.0,1.0,8.4444,
54.8443,8.3428,0.0,232.433,233.329,0.0,1.0,8.3428,
55.0443,8.2424,0.0,230.437,231.333,0.0,1.0,8.2424,
55.2443,8.1428,0.0,228.437,229.333,0.0,1.0,8.1428,
55.4443,8.0415,0.0,226.441,227.341,0.0,1.0,8.0415,
55.6443,7.9372,0.0,224.445,225.35,0.0,1.0,7.9372,
55.8443,7.8337,0.0,222.45,223.354,0.0,1.0,7.8337,
56.0443,7.7386,0.0,220.45,221.358,0.0,1.0,7.7386,
56.2443,7.6411,0.0,218.454,219.362,0.0,1.0,7.6411,
56.4443,7.5463,0.0,216.458,217.379,0.0,1.0,7.5463,
56.6443,7.4541,0.0,214.462,215.379,0.0,1.0,7.4541,
56.8443,7.3598,0.0,212.466,213.387,0.0,1.0,7.3598,
57.0443,7.2698,0.0,210.466,211.395,0.0,1.0,7.2698,
57.2443,7.1795,0.0,208.47,209.4,0.0,1.0,7.1795,
57.4443,7.0885,0.0,206.475,207.412,0.0,1.0,7.0885,
57.6443,7.0002,0.0,204.479,205.42,0.0,1.0,7.0002,
57.8443,6.912,0.0,202.483,203.429,0.0,1.0,6.912,
58.0443,6.824,0.0,200.483,201.433,0.0,1.0,6.824,
58.2443,6.7352,0.0,198.487,199.45,0.0,1.0,6.7352,
58.4443,6.6505,0.0,196.491,197.458,0.0,1.0,6.6505,
58.6443,6.5648,0.0,194.495,195.47,0.0,1.0,6.5648,
58.8443,6.4793,0.0,192.5,193.475,0.0,1.0,6.4793,
59.0443,6.3964,0.0,190.5,191.479,0.0,1.0,6.3964,
59.2443,6.3116,0.0,188.504,189.483,0.0,1.0,6.3116,
59.4443,6.2303,0.0,186.508,187.487,0.0,1.0,6.2303,
59.6443,6.1484,0.0,184.512,185.495,0.0,1.0,6.1484,
59.8443,6.0665,0.0,182.512,183.495,0.0,1.0,6.0665,
60.0443,5.9859,0.0,180.516,181.504,0.0,1.0,5.9859,
60.2443,5.9085,0.0,178.52,179.512,0.0,1.0,5.9085,
60.4443,5.828,0.0,176.525,177.525,0.0,1.0,5.828,
60.6443,5.7492,0.0,174.529,175.529,0.0,1.0,5.7492,
60.8443,5.672,0.0,172.529,173.533,0.0,1.0,5.672,
61.0443,5.5948,0.0,170.533,171.541,0.0,1.0,5.5948,
61.2443,5.519,0.0,168.537,169.554,0.0,1.0,5.519,
61.4443,5.4431,0.0,166.541,167.554,0.0,1.0,5.4431,
61.6443,5.3682,0.0,164.545,165.558,0.0,1.0,5.3682,
61.8443,5.2938,0.0,162.545,163.566,0.0,1.0,5.2938,
62.0443,5.2203,0.0,160.55,161.575,0.0,1.0,5.2203,
62.2443,5.1473,0.0,158.554,159.583,0.0,1.0,5.1473,
62.4443,5.0738,0.0,156.558,157.583,0.0,1.0,5.0738,
62.6443,5.0043,0.0,154.558,155.6,0.0,1.0,5.0043,
62.8443,4.9321,0.0,152.562,153.604,0.0,1.0,4.9321,
63.0443,4.8628,0.0,150.566,151.616,0.0,1.0,4.8628,
63.2443,4.7915,0.0,148.57,149.629,0.0,1.0,4.7915,
63.4443,4.724,0.0,146.575,147.641,0.0,1.0,4.724,
63.6443,4.6549,0.0,144.575,145.65,0.0,1.0,4.6549,
63.8443,4.5906,0.0,142.579,143.658,0.0,1.0,4.5906,
64.0443,4.5214,0.0,140.583,141.67,0.0,1.0,4.5214,
64.2443,4.456,0.0,138.587,139.679,0.0,1.0,4.456,
64.4443,4.3921,0.0,136.591,137.691,0.0,1.0,4.3921,
64.6443,4.3244,0.0,134.591,135.691,0.0,1.0,4.3244,
64.8443,4.26,0.0,132.595,133.704,0.0,1.0,4.26,
65.0443,4.1951,0.0,130.6,131.704,0.0,1.0,4.1951,
65.2443,4.1303,0.0,128.604,129.716,0.0,1.0,4.1303,
65.4443,4.0684,0.0,126.604,127.72,0.0,1.0,4.0684,
65.6443,4.0038,0.0,124.608,125.729,0.0,1.0,4.0038,
65.8443,3.9417,0.0,122.612,123.737,0.0,1.0,3.9417,
66.0443,3.8793,0.0,120.616,121.75,0.0,1.0,3.8793,
66.2443,3.8184,0.0,118.62,119.754,0.0,1.0,3.8184,
66.4443,3.7579,0.0,116.62,117.766,0.0,1.0,3.7579,
66.6443,3.698,0.0,114.625,115.783,0.0,1.0,3.698,
66.8443,3.639,0.0,112.629,113.791,0.0,1.0,3.639,
67.0443,3.5802,0.0,110.633,111.804,0.0,1.0,3.5802,
67.2443,3.5234,0.0,108.637,109.812,0.0,1.0,3.5234,
67.4443,3.4668,0.0,106.637,107.829,0.0,1.0,3.4668,
67.6443,3.4101,0.0,104.641,105.837,0.0,1.0,3.4101,
67.8443,3.3542,0.0,102.645,103.854,0.0,1.0,3.3542,
68.0443,3.2997,0.0,100.65,101.866,0.0,1.0,3.2997,
68.2443,3.2457,0.0,98.65,99.879,0.0,1.0,3.2457,
68.4443,3.1914,0.0,96.654,97.895,0.0,1.0,3.1914,
68.6443,3.1395,0.0,94.658,95.908,0.0,1.0,3.1395,
68.8443,3.0862,0.0,92.662,93.929,0.0,1.0,3.0862,
69.0443,3.0322,0.0,90.666,91.941,0.0,1.0,3.0322,
69.2443,2.9823,0.0,88.666,89.958,0.0,1.0,2.9823,
69.4443,2.9295,0.0,86.67,87.97,0.0,1.0,2.9295,
69.6443,2.8813,0.0,84.675,85.995,0.0,1.0,2.8813,
69.8443,2.8323,0.0,82.679,84.016,0.0,1.0,2.8323,
70.0443,2.7873,0.0,80.683,82.025,0.0,1.0,2.7873,
70.2443,2.739,0.0,78.683,80.045,0.0,1.0,2.739,
70.4443,2.6923,0.0,76.687,78.054,0.0,1.0,2.6923,
70.6443,2.6439,0.0,74.691,76.07,0.0,1.0,2.6439,
70.8443,2.5983,0.0,72.695,74.087,0.0,1.0,2.5983,
71.0443,2.5538,0.0,70.7,72.1,0.0,1.0,2.5538,
71.2443,2.5096,0.0,68.7,70.125,0.0,1.0,2.5096,
71.4443,2.4672,0.0,66.704,68.141,0.0,1.0,2.4672,
71.6443,2.4234,0.0,64.708,66.166,0.0,1.0,2.4234,
71.8443,2.3854,0.0,62.712,64.187,0.0,1.0,2.3854,
72.0443,2.3458,0.0,60.712,62.212,0.0,1.0,2.3458,
72.2443,2.3109,0.0,58.716,60.237,0.0,1.0,2.3109,
72.4443,2.2781,0.0,56.72,58.266,0.0,1.0,2.2781,
72.6443,2.2468,0.0,54.725,56.304,0.0,1.0,2.2468,
72.8443,2.2207,0.0,52.729,54.337,0.0,1.0,2.2207,
73.0443,2.1995,0.0,50.729,52.375,0.0,1.0,2.1995,
73.2443,2.185,0.0,48.733,50.42,0.0,1.0,2.185,
73.4443,2.1791,0.0,46.737,48.47,0.0,1.0,2.1791,
73.6443,2.1843,0.0,44.741,46.516,0.0,1.0,2.1843,
73.8443,2.2069,0.0,42.745,44.575,0.0,1.0,2.2069,
74.0443,2.254,0.0,40.745,42.637,0.0,1.0,2.254,
74.2443,2.0295,0.0,38.75,40.75,0.0,1.0,2.0295,
74.4443,1.8151,0.0,36.754,39.079,0.0,1.0,1.8151,
74.6443,1.7087,0.0,34.758,37.658,0.0,1.0,1.7087,
74.8443,1.6202,0.0,32.758,36.437,0.0,1.0,1.6202,
75.0443,1.5347,0.0,30.762,35.387,0.0,1.0,1.5347,
75.5325,1.4663,0.0,30.0,33.408,0.0,1.0,1.4663,
76.1992,1.4253,0.0,30.0,31.67,0.0,1.0,1.4253,
76.8658,1.2951,0.0,30.0,31.487,0.0,1.0,1.2951,
77.5325,1.2958,0.0,30.0,31.491,0.0,1.0,1.2958,
78.1992,1.2942,0.0,30.0,31.495,0.0,1.0,1.2942,
78.8658,1.2927,0.0,30.0,31.5,0.0,1.0,1.2927,
79.5325,1.2922,0.0,30.0,31.5,0.0,1.0,1.2922,
80.1502,0.394,0.0,30.208,31.512,0.0,1.0,0.394,
80.3502,0.3766,0.0,32.204,33.066,0.0,1.0,0.3766,
80.5502,0.8202,0.0,34.2,35.033,0.0,1.0,0.8202,
80.7502,0.9006,0.0,36.195,37.008,0.0,1.0,0.9006,
80.9502,0.9576,0.0,38.191,38.987,0.0,1.0,0.9576,
81.1502,1.0154,0.0,40.191,40.962,0.0,1.0,1.0154,
81.3502,1.0718,0.0,42.187,42.937,0.0,1.0,1.0718,
81.5502,1.1262,0.0,44.183,44.916,0.0,1.0,1.1262,
81.7502,1.1834,0.0,46.179,46.9,0.0,1.0,1.1834,
81.9502,1.2398,0.0,48.179,48.887,0.0,1.0,1.2398,
82.1502,1.2959,0.0,50.175,50.87,0.0,1.0,1.2959,
82.3502,1.3528,0.0,52.17,52.85,0.0,1.0,1.3528,
82.5502,1.4081,0.0,54.166,54.833,0.0,1.0,1.4081,
82.7502,1.4655,0.0,56.162,56.825,0.0,1.0,1.4655,
82.9502,1.5225,0.0,58.162,58.812,0.0,1.0,1.5225,
83.1502,1.581,0.0,60.158,60.8,0.0,1.0,1.581,
83.3502,1.6367,0.0,62.154,62.787,0.0,1.0,1.6367,
83.5502,1.694,0.0,64.15,64.775,0.0,1.0,1.694,
83.7502,1.7501,0.0,66.145,66.775,0.0,1.0,1.7501,
83.9502,1.8103,0.0,68.145,68.766,0.0,1.0,1.8103,
84.1502,1.8595,0.0,70.141,70.754,0.0,1.0,1.8595,
84.3502,1.9149,0.0,72.137,72.754,0.0,1.0,1.9149,
84.5502,1.9744,0.0,74.133,74.75,0.0,1.0,1.9744,
84.7502,2.0352,0.0,76.133,76.745,0.0,1.0,2.0352,
84.9502,2.0903,0.0,78.129,78.733,0.0,1.0,2.0903,
85.1502,2.1512,0.0,80.125,80.729,0.0,1.0,2.1512,
85.3502,2.2085,0.0,82.12,82.725,0.0,1.0,2.2085,
85.5502,2.2679,0.0,84.116,84.725,0.0,1.0,2.2679,
85.7502,2.3248,0.0,86.116,86.712,0.0,1.0,2.3248,
85.9502,2.3876,0.0,88.112,88.7,0.0,1.0,2.3876,
86.1502,2.4457,0.0,90.108,90.691,0.0,1.0,2.4457,
86.3502,2.5026,0.0,92.104,92.683,0.0,1.0,2.5026,
86.5502,2.551,0.0,94.1,94.675,0.0,1.0,2.551,
86.7502,2.6223,0.0,96.1,96.666,0.0,1.0,2.6223,
86.9502,2.6752,0.0,98.095,98.654,0.0,1.0,2.6752,
87.1502,2.739,0.0,100.091,100.65,0.0,1.0,2.739,
87.3502,2.7954,0.0,102.087,102.645,0.0,1.0,2.7954,
87.5502,2.8618,0.0,104.087,104.633,0.0,1.0,2.8618,
87.7502,2.9231,0.0,106.083,106.625,0.0,1.0,2.9231,
87.9502,2.9859,0.0,108.079,108.616,0.0,1.0,2.9859,
88.1502,3.0442,0.0,110.075,110.612,0.0,1.0,3.0442,
88.3502,3.1101,0.0,112.07,112.608,0.0,1.0,3.1101,
88.5502,3.1709,0.0,114.07,114.6,0.0,1.0,3.1709,
88.7502,3.2314,0.0,116.066,116.595,0.0,1.0,3.2314,
88.9502,3.2975,0.0,118.062,118.591,0.0,1.0,3.2975,
89.1502,3.358,0.0,120.058,120.587,0.0,1.0,3.358,
89.3502,3.4219,0.0,122.054,122.57,0.0,1.0,3.4219,
89.5502,3.4824,0.0,124.054,124.57,0.0,1.0,3.4824,
89.7502,3.5444,0.0,126.05,126.562,0.0,1.0,3.5444,
89.9502,3.6132,0.0,128.045,128.562,0.0,1.0,3.6132,
90.1502,3.6805,0.0,130.041,130.558,0.0,1.0,3.6805,
90.3502,3.7464,0.0,132.037,132.554,0.0,1.0,3.7464,
90.5502,3.8127,0.0,134.037,134.55,0.0,1.0,3.8127,
90.7502,3.8761,0.0,136.033,136.55,0.0,1.0,3.8761,
90.9502,3.9452,0.0,138.029,138.55,0.0,1.0,3.9452,
91.1502,4.0154,0.0,140.025,140.545,0.0,1.0,4.0154,
91.3502,4.082,0.0,142.025,142.537,0.0,1.0,4.082,
91.5502,4.1463,0.0,144.02,144.529,0.0,1.0,4.1463,
91.7502,4.2133,0.0,146.016,146.525,0.0,1.0,4.2133,
91.9502,4.2949,0.0,148.012,148.516,0.0,1.0,4.2949,
92.1502,4.3681,0.0,150.008,150.508,0.0,1.0,4.3681,
92.3502,4.441,0.0,152.008,152.5,0.0,1.0,4.441,
92.5502,4.5159,0.0,154.004,154.491,0.0,1.0,4.5159,
92.7502,4.5863,0.0,156.0,156.487,0.0,1.0,4.5863,
92.9502,4.6596,0.0,157.995,158.483,0.0,1.0,4.6596,
93.1502,4.7307,0.0,159.991,160.479,0.0,1.0,4.7307,
93.3502,4.8041,0.0,161.991,162.479,0.0,1.0,4.8041,
93.5502,4.876,0.0,163.987,164.47,0.0,1.0,4.876,
93.7502,4.9521,0.0,165.983,166.47,0.0,1.0,4.9521,
93.9502,5.026,0.0,167.979,168.462,0.0,1.0,5.026,
94.1502,5.102,0.0,169.979,170.466,0.0,1.0,5.102,
94.3502,5.179,0.0,171.975,172.462,0.0,1.0,5.179,
94.5502,5.2531,0.0,173.97,174.454,0.0,1.0,5.2531,
94.7502,5.3294,0.0,175.966,176.454,0.0,1.0,5.3294,
94.9502,5.4061,0.0,177.962,178.445,0.0,1.0,5.4061,
95.1502,5.4795,0.0,179.962,180.441,0.0,1.0,5.4795,
95.3502,5.5559,0.0,181.958,182.433,0.0,1.0,5.5559,
95.5502,5.6362,0.0,183.954,184.433,0.0,1.0,5.6362,
95.7502,5.7169,0.0,185.95,186.429,0.0,1.0,5.7169,
95.9502,5.7916,0.0,187.945,188.425,0.0,1.0,5.7916,
96.1502,5.8763,0.0,189.945,190.425,0.0,1.0,5.8763,
96.3502,5.9601,0.0,191.941,192.42,0.0,1.0,5.9601,
96.5502,6.0422,0.0,193.937,194.42,0.0,1.0,6.0422,
96.7502,6.1252,0.0,195.933,196.42,0.0,1.0,6.1252,
96.9502,6.2027,0.0,197.933,198.404,0.0,1.0,6.2027,
97.1502,6.2905,0.0,199.929,200.4,0.0,1.0,6.2905,
97.3502,6.3713,0.0,201.925,202.395,0.0,1.0,6.3713,
97.5502,6.46,0.0,203.92,204.387,0.0,1.0,6.46,
97.7502,6.5454,0.0,205.916,206.383,0.0,1.0,6.5454,
97.9502,6.6312,0.0,207.916,208.375,0.0,1.0,6.6312,
98.1502,6.7197,0.0,209.912,210.366,0.0,1.0,6.7197,
98.3502,6.8096,0.0,211.908,212.362,0.0,1.0,6.8096,
98.5502,6.8968,0.0,213.904,214.362,0.0,1.0,6.8968,
98.7502,6.9871,0.0,215.9,216.354,0.0,1.0,6.9871,
98.9502,7.0764,0.0,217.9,218.354,0.0,1.0,7.0764,
99.1502,7.169,0.0,219.895,220.341,0.0,1.0,7.169,
99.3502,7.2609,0.0,221.891,222.341,0.0,1.0,7.2609,
99.5502,7.3529,0.0,223.887,224.333,0.0,1.0,7.3529,
99.7502,7.4486,0.0,225.883,226.333,0.0,1.0,7.4486,
99.9502,7.5414,0.0,227.883,228.329,0.0,1.0,7.5414,
100.15,7.6391,0.0,229.879,230.325,0.0,1.0,7.6391,
100.35,7.7331,0.0,231.875,232.329,0.0,1.0,7.7331,
100.55,7.8315,0.0,233.87,234.325,0.0,1.0,7.8315,
100.75,7.9287,0.0,235.87,236.32,0.0,1.0,7.9287,
100.95,8.0266,0.0,237.866,238.312,0.0,1.0,8.0266,
101.15,8.1273,0.0,239.862,240.316,0.0,1.0,8.1273,
101.35,8.224,0.0,241.858,242.312,0.0,1.0,8.224,
101.55,8.324,0.0,243.854,244.316,0.0,1.0,8.324,
101.75,8.4271,0.0,245.854,246.312,0.0,1.0,8.4271,
101.95,8.5316,0.0,247.85,248.308,0.0,1.0,8.5316,
102.15,8.6376,0.0,249.845,250.308,0.0,1.0,8.6376,
102.35,8.744,0.0,251.841,252.3,0.0,1.0,8.744,
102.55,8.8497,0.0,253.837,254.291,0.0,1.0,8.8497,
102.75,8.9589,0.0,255.837,256.283,0.0,1.0,8.9589,
102.95,9.0714,0.0,257.833,258.275,0.0,1.0,9.0714,
103.15,9.183,0.0,259.829,260.266,0.0,1.0,9.183,
103.35,9.2966,0.0,261.825,262.266,0.0,1.0,9.2966,
103.55,9.4099,0.0,263.825,264.258,0.0,1.0,9.4099,
103.75,9.5249,0.0,265.82,266.25,0.0,1.0,9.5249,
103.95,9.6435,0.0,267.816,268.25,0.0,1.0,9.6435,
104.15,9.7577,0.0,269.812,270.241,0.0,1.0,9.7577,
104.35,9.878,0.0,271.808,272.241,0.0,1.0,9.878,
104.55,9.9979,0.0,273.808,274.237,0.0,1.0,9.9979,
104.75,10.1157,0.0,275.804,276.229,0.0,1.0,10.1157,
104.95,10.2359,0.0,277.8,278.233,0.0,1.0,10.2359,
105.15,10.3594,0.0,279.795,280.225,0.0,1.0,10.3594,
105.35,10.4817,0.0,281.791,282.229,0.0,1.0,10.4817,
105.55,10.6077,0.0,283.791,284.216,0.0,1.0,10.6077,
105.75,10.7313,0.0,285.787,286.216,0.0,1.0,10.7313,
105.95,10.8592,0.0,287.783,288.22,0.0,1.0,10.8592,
106.15,10.9902,0.0,289.779,290.216,0.0,1.0,10.9902,
106.35,11.1161,0.0,291.779,292.212,0.0,1.0,11.1161,
106.55,11.2497,0.0,293.775,294.216,0.0,1.0,11.2497,
106.75,11.3769,0.0,295.77,296.208,0.0,1.0,11.3769,
106.95,11.507,0.0,297.766,298.208,0.0,1.0,11.507,
107.15,11.634,0.0,299.762,300.212,0.0,1.0,11.634,
107.35,11.7602,0.0,301.762,302.208,0.0,1.0,11.7602,
107.55,11.8916,0.0,303.758,304.208,0.0,1.0,11.8916,
107.75,12.0236,0.0,305.754,306.195,0.0,1.0,12.0236,
107.95,12.1595,0.0,307.75,308.2,0.0,1.0,12.1595,
108.15,12.2953,0.0,309.745,310.191,0.0,1.0,12.2953,
108.35,12.4321,0.0,311.745,312.195,0.0,1.0,12.4321,
108.55,12.5796,0.0,313.741,314.195,0.0,1.0,12.5796,
108.75,12.7262,0.0,315.737,316.183,0.0,1.0,12.7262,
108.95,12.874,0.0,317.733,318.179,0.0,1.0,12.874,
109.15,13.0269,0.0,319.729,320.179,0.0,1.0,13.0269,
109.35,13.1813,0.0,321.729,322.17,0.0,1.0,13.1813,
109.55,13.3381,0.0,323.725,324.166,0.0,1.0,13.3381,
109.75,13.507,0.0,325.72,326.162,0.0,1.0,13.507,
109.95,13.6741,0.0,327.716,328.154,0.0,1.0,13.6741,
110.15,13.856,0.0,329.716,330.15,0.0,1.0,13.856,
110.35,14.0518,0.0,331.712,332.145,0.0,1.0,14.0518,
110.55,14.2656,0.0,333.708,334.137,0.0,1.0,14.2656,
110.75,14.5114,0.0,335.704,336.133,0.0,1.0,14.5114,
110.95,14.7769,0.0,337.7,338.133,0.0,1.0,14.7769,
111.15,14.9227,0.0,339.7,340.129,0.0,1.0,14.9227,
111.35,14.8249,0.0,341.695,342.129,0.0,1.0,14.8249,
111.55,14.784,0.0,343.691,344.12,0.0,1.0,14.784,
111.75,14.884,0.0,345.687,346.12,0.0,1.0,14.884,
111.95,15.0206,0.0,347.683,348.12,0.0,1.0,15.0206,
112.15,15.1639,0.0,349.683,350.12,0.0,1.0,15.1639,
112.35,15.3273,0.0,351.679,352.116,0.0,1.0,15.3273,
112.55,15.49,0.0,353.675,354.116,0.0,1.0,15.49,
112.75,15.6512,0.0,355.67,356.112,0.0,1.0,15.6512,
112.95,15.8162,0.0,357.67,358.116,0.0,1.0,15.8162,
113.15,15.9814,0.0,359.666,360.12,0.0,1.0,15.9814,
113.35,16.1464,0.0,361.662,362.112,0.0,1.0,16.1464,
113.55,16.3146,0.0,363.658,364.108,0.0,1.0,16.3146,
113.75,16.4811,0.0,365.654,366.1,0.0,1.0,16.4811,
113.95,16.6484,0.0,367.654,368.091,0.0,1.0,16.6484,
114.15,16.818,0.0,369.65,370.091,0.0,1.0,16.818,
114.35,16.9927,0.0,371.645,372.087,0.0,1.0,16.9927,
114.55,17.1648,0.0,373.641,374.075,0.0,1.0,17.1648,
114.75,17.3429,0.0,375.637,376.075,0.0,1.0,17.3429,
114.95,17.5214,0.0,377.637,378.07,0.0,1.0,17.5214,
115.15,17.7008,0.0,379.633,380.07,0.0,1.0,17.7008,
115.35,17.7932,0.0,378.366,379.27,0.0,1.0,17.7932,
115.55,17.4636,0.0,376.37,377.275,0.0,1.0,17.4636,
115.75,17.2718,0.0,374.375,375.279,0.0,1.0,17.2718,
115.95,17.0823,0.0,372.379,373.287,0.0,1.0,17.0823,
116.15,16.8945,0.0,370.379,371.3,0.0,1.0,16.8945,
116.35,16.711,0.0,368.383,369.304,0.0,1.0,16.711,
116.55,16.5284,0.0,366.387,367.316,0.0,1.0,16.5284,
116.75,16.3487,0.0,364.391,365.316,0.0,1.0,16.3487,
116.95,16.1685,0.0,362.395,363.329,0.0,1.0,16.1685,
117.15,15.9937,0.0,360.395,361.337,0.0,1.0,15.9937,
117.35,15.8193,0.0,358.4,359.35,0.0,1.0,15.8193,
117.55,15.6461,0.0,356.404,357.345,0.0,1.0,15.6461,
117.75,15.4721,0.0,354.408,355.35,0.0,1.0,15.4721,
117.95,15.3038,0.0,352.412,353.35,0.0,1.0,15.3038,
118.15,15.1379,0.0,350.412,351.358,0.0,1.0,15.1379,
118.35,14.9726,0.0,348.416,349.358,0.0,1.0,14.9726,
118.55,14.8053,0.0,346.42,347.362,0.0,1.0,14.8053,
118.75,14.6438,0.0,344.425,345.362,0.0,1.0,14.6438,
118.95,14.4833,0.0,342.425,343.366,0.0,1.0,14.4833,
119.15,14.3249,0.0,340.429,341.375,0.0,1.0,14.3249,
119.35,14.1688,0.0,338.433,339.379,0.0,1.0,14.1688,
119.55,14.0117,0.0,336.437,337.383,0.0,1.0,14.0117,
119.75,13.8604,0.0,334.441,335.383,0.0,1.0,13.8604,
119.95,13.7058,0.0,332.441,333.4,0.0,1.0,13.7058,
120.15,13.554,0.0,330.445,331.4,0.0,1.0,13.554,
120.35,13.4053,0.0,328.45,329.412,0.0,1.0,13.4053,
120.55,13.2586,0.0,326.454,327.42,0.0,1.0,13.2586,
120.75,13.1161,0.0,324.458,325.425,0.0,1.0,13.1161,
120.95,12.9706,0.0,322.458,323.429,0.0,1.0,12.9706,
121.15,12.8286,0.0,320.462,321.437,0.0,1.0,12.8286,
121.35,12.6891,0.0,318.466,319.45,0.0,1.0,12.6891,
121.55,12.5496,0.0,316.47,317.45,0.0,1.0,12.5496,
121.75,12.4103,0.0,314.475,315.458,0.0,1.0,12.4103,
121.95,12.2746,0.0,312.475,313.47,0.0,1.0,12.2746,
122.15,12.1341,0.0,310.479,311.475,0.0,1.0,12.1341,
122.35,12.0019,0.0,308.483,309.475,0.0,1.0,12.0019,
122.55,11.8699,0.0,306.487,307.483,0.0,1.0,11.8699,
122.75,11.7364,0.0,304.487,305.491,0.0,1.0,11.7364,
122.95,11.6006,0.0,302.491,303.5,0.0,1.0,11.6006,
123.15,11.434,0.0,300.495,301.5,0.0,1.0,11.434,
123.35,11.1004,0.0,298.5,299.504,0.0,1.0,11.1004,
123.55,10.1727,0.0,296.504,297.504,0.0,1.0,10.1727,
123.75,9.474,0.0,294.504,295.508,0.0,1.0,9.474,
123.95,10.3335,0.0,292.508,293.516,0.0,1.0,10.3335,
124.15,10.6046,0.0,290.512,291.512,0.0,1.0,10.6046,
124.35,10.5829,0.0,288.516,289.52,0.0,1.0,10.5829,
124.55,10.5028,0.0,286.52,287.52,0.0,1.0,10.5028,
124.75,10.4006,0.0,284.52,285.525,0.0,1.0,10.4006,
124.95,10.2925,0.0,282.525,283.533,0.0,1.0,10.2925,
125.15,10.1856,0.0,280.529,281.537,0.0,1.0,10.1856,
125.35,10.0726,0.0,278.533,279.545,0.0,1.0,10.0726,
125.55,9.9619,0.0,276.533,277.55,0.0,1.0,9.9619,
125.75,9.8484,0.0,274.537,275.55,0.0,1.0,9.8484,
125.95,9.7385,0.0,272.541,273.562,0.0,1.0,9.7385,
126.15,9.6289,0.0,270.545,271.566,0.0,1.0,9.6289,
126.35,9.5183,0.0,268.55,269.575,0.0,1.0,9.5183,
126.55,9.4089,0.0,266.55,267.57,0.0,1.0,9.4089,
126.75,9.2988,0.0,264.554,265.587,0.0,1.0,9.2988,
126.95,9.1923,0.0,262.558,263.591,0.0,1.0,9.1923,
127.15,9.0844,0.0,260.562,261.6,0.0,1.0,9.0844,
127.35,8.9773,0.0,258.566,259.608,0.0,1.0,8.9773,
127.55,8.8714,0.0,256.566,257.612,0.0,1.0,8.8714,
127.75,8.7647,0.0,254.57,255.629,0.0,1.0,8.7647,
127.95,8.66,0.0,252.575,253.633,0.0,1.0,8.66,
128.15,8.5561,0.0,250.579,251.65,0.0,1.0,8.5561,
128.35,8.4521,0.0,248.579,249.658,0.0,1.0,8.4521,
128.55,8.3506,0.0,246.583,247.658,0.0,1.0,8.3506,
128.75,8.2462,0.0,244.587,245.67,0.0,1.0,8.2462,
128.95,8.1459,0.0,242.591,243.675,0.0,1.0,8.1459,
129.15,8.045,0.0,240.595,241.679,0.0,1.0,8.045,
129.35,7.9441,0.0,238.595,239.679,0.0,1.0,7.9441,
129.55,7.8413,0.0,236.6,237.683,0.0,1.0,7.8413,
129.75,7.7377,0.0,234.604,235.687,0.0,1.0,7.7377,
129.95,7.642,0.0,232.608,233.695,0.0,1.0,7.642,
130.15,7.5437,0.0,230.612,231.695,0.0,1.0,7.5437,
130.35,7.4456,0.0,228.612,229.704,0.0,1.0,7.4456,
130.55,7.3524,0.0,226.616,227.704,0.0,1.0,7.3524,
130.75,7.2558,0.0,224.62,225.716,0.0,1.0,7.2558,
130.95,7.1575,0.0,222.625,223.725,0.0,1.0,7.1575,
131.15,7.0665,0.0,220.625,221.729,0.0,1.0,7.0665,
131.35,6.9728,0.0,218.629,219.729,0.0,1.0,6.9728,
131.55,6.881,0.0,216.633,217.745,0.0,1.0,6.881,
131.75,6.7891,0.0,214.637,215.75,0.0,1.0,6.7891,
131.95,6.6986,0.0,212.641,213.758,0.0,1.0,6.6986,
132.15,6.61,0.0,210.641,211.766,0.0,1.0,6.61,
132.35,6.522,0.0,208.645,209.766,0.0,1.0,6.522,
132.55,6.4313,0.0,206.65,207.783,0.0,1.0,6.4313,
132.75,6.345,0.0,204.654,205.791,0.0,1.0,6.345,
132.95,6.2589,0.0,202.658,203.795,0.0,1.0,6.2589,
133.15,6.1731,0.0,200.658,201.804,0.0,1.0,6.1731,
133.35,6.0917,0.0,198.662,199.82,0.0,1.0,6.0917,
133.55,6.0067,0.0,196.666,197.833,0.0,1.0,6.0067,
133.75,5.9243,0.0,194.67,195.841,0.0,1.0,5.9243,
133.95,5.8406,0.0,192.675,193.85,0.0,1.0,5.8406,
134.15,5.7586,0.0,190.675,191.854,0.0,1.0,5.7586,
134.35,5.6783,0.0,188.679,189.862,0.0,1.0,5.6783,
134.55,5.5977,0.0,186.683,187.866,0.0,1.0,5.5977,
134.75,5.52,0.0,184.687,185.875,0.0,1.0,5.52,
134.95,5.4394,0.0,182.687,183.879,0.0,1.0,5.4394,
135.15,5.3615,0.0,180.691,181.883,0.0,1.0,5.3615,
135.35,5.2838,0.0,178.695,179.891,0.0,1.0,5.2838,
135.55,5.2074,0.0,176.7,177.904,0.0,1.0,5.2074,
135.75,5.1334,0.0,174.704,175.912,0.0,1.0,5.1334,
135.95,5.0573,0.0,172.704,173.92,0.0,1.0,5.0573,
136.15,4.9829,0.0,170.708,171.925,0.0,1.0,4.9829,
136.35,4.911,0.0,168.712,169.929,0.0,1.0,4.911,
136.55,4.837,0.0,166.716,167.941,0.0,1.0,4.837,
136.75,4.7661,0.0,164.72,165.945,0.0,1.0,4.7661,
136.95,4.6931,0.0,162.72,163.954,0.0,1.0,4.6931,
137.15,4.6209,0.0,160.725,161.958,0.0,1.0,4.6209,
137.35,4.5512,0.0,158.729,159.975,0.0,1.0,4.5512,
137.55,4.483,0.0,156.733,157.975,0.0,1.0,4.483,
137.75,4.4137,0.0,154.733,155.983,0.0,1.0,4.4137,
137.95,4.3466,0.0,152.737,153.991,0.0,1.0,4.3466,
138.15,4.2798,0.0,150.741,152.008,0.0,1.0,4.2798,
138.35,4.2125,0.0,148.745,150.02,0.0,1.0,4.2125,
138.55,4.1471,0.0,146.75,148.029,0.0,1.0,4.1471,
138.75,4.0817,0.0,144.75,146.041,0.0,1.0,4.0817,
138.95,4.0168,0.0,142.754,144.05,0.0,1.0,4.0168,
139.15,3.9555,0.0,140.758,142.066,0.0,1.0,3.9555,
139.35,3.8935,0.0,138.762,140.079,0.0,1.0,3.8935,
139.55,3.8321,0.0,136.766,138.091,0.0,1.0,3.8321,
139.75,3.7688,0.0,134.766,136.091,0.0,1.0,3.7688,
139.95,3.7062,0.0,132.77,134.104,0.0,1.0,3.7062,
140.15,3.645,0.0,130.775,132.112,0.0,1.0,3.645,
140.35,3.5851,0.0,128.779,130.12,0.0,1.0,3.5851,
140.55,3.5231,0.0,126.779,128.125,0.0,1.0,3.5231,
140.75,3.4642,0.0,124.783,126.133,0.0,1.0,3.4642,
140.95,3.4041,0.0,122.787,124.15,0.0,1.0,3.4041,
141.15,3.3477,0.0,120.791,122.162,0.0,1.0,3.3477,
141.35,3.2907,0.0,118.795,120.175,0.0,1.0,3.2907,
141.55,3.2326,0.0,116.795,118.183,0.0,1.0,3.2326,
141.75,3.1761,0.0,114.8,116.2,0.0,1.0,3.1761,
141.95,3.1194,0.0,112.804,114.212,0.0,1.0,3.1194,
142.15,3.0651,0.0,110.808,112.229,0.0,1.0,3.0651,
142.35,3.0098,0.0,108.812,110.241,0.0,1.0,3.0098,
142.55,2.9566,0.0,106.812,108.254,0.0,1.0,2.9566,
142.75,2.9042,0.0,104.816,106.27,0.0,1.0,2.9042,
142.95,2.8511,0.0,102.82,104.287,0.0,1.0,2.8511,
143.15,2.801,0.0,100.825,102.308,0.0,1.0,2.801,
143.35,2.7529,0.0,98.829,100.32,0.0,1.0,2.7529,
143.55,2.701,0.0,96.829,98.341,0.0,1.0,2.701,
143.75,2.6514,0.0,94.833,96.354,0.0,1.0,2.6514,
143.95,2.6025,0.0,92.837,94.375,0.0,1.0,2.6025,
144.15,2.5554,0.0,90.841,92.4,0.0,1.0,2.5554,
144.35,2.5086,0.0,88.841,90.412,0.0,1.0,2.5086,
144.55,2.4612,0.0,86.845,88.437,0.0,1.0,2.4612,
144.75,2.4185,0.0,84.85,86.462,0.0,1.0,2.4185,
144.95,2.3746,0.0,82.854,84.491,0.0,1.0,2.3746,
145.15,2.334,0.0,80.858,82.504,0.0,1.0,2.334,
145.35,2.2942,0.0,78.858,80.525,0.0,1.0,2.2942,
145.55,2.2527,0.0,76.862,78.55,0.0,1.0,2.2527,
145.75,2.2152,0.0,74.866,76.57,0.0,1.0,2.2152,
145.95,2.1787,0.0,72.87,74.595,0.0,1.0,2.1787,
146.15,2.1413,0.0,70.875,72.616,0.0,1.0,2.1413,
146.35,2.1088,0.0,68.875,70.641,0.0,1.0,2.1088,
146.55,2.0797,0.0,66.879,68.675,0.0,1.0,2.0797,
146.75,2.0548,0.0,64.883,66.704,0.0,1.0,2.0548,
146.95,2.0315,0.0,62.887,64.741,0.0,1.0,2.0315,
147.15,2.0156,0.0,60.887,62.775,0.0,1.0,2.0156,
147.35,2.0052,0.0,58.891,60.816,0.0,1.0,2.0052,
147.55,2.0053,0.0,56.895,58.866,0.0,1.0,2.0053,
147.75,2.0193,0.0,54.9,56.925,0.0,1.0,2.0193,
147.95,2.0492,0.0,52.904,54.975,0.0,1.0,2.0492,
148.15,2.1138,0.0,50.904,53.045,0.0,1.0,2.1138,
148.35,1.8309,0.0,48.908,51.175,0.0,1.0,1.8309,
148.55,1.6315,0.0,46.912,49.545,0.0,1.0,1.6315,
148.75,1.528,0.0,44.916,48.15,0.0,1.0,1.528,
148.95,1.4392,0.0,42.92,46.958,0.0,1.0,1.4392,
149.15,1.3549,0.0,40.92,45.929,0.0,1.0,1.3549,
149.35,1.2748,0.0,38.925,45.054,0.0,1.0,1.2748,
149.55,1.1975,0.0,36.929,44.304,0.0,1.0,1.1975,
149.75,1.1221,0.0,34.933,43.654,0.0,1.0,1.1221,
149.95,1.0497,0.0,32.933,43.108,0.0,1.0,1.0497,
150.15,0.9781,0.0,30.937,42.637,0.0,1.0,0.9781,
150.5975,0.9304,0.0,30.0,41.8,0.0,1.0,0.9304,
151.264,0.9109,0.0,30.0,41.0,0.0,1.0,0.9109,
151.931,0.899,0.0,30.0,40.516,0.0,1.0,0.899,
152.5975,0.8912,0.0,30.0,40.237,0.0,1.0,0.8912,
153.264,0.8863,0.0,30.0,40.066,0.0,1.0,0.8863,
153.931,0.8828,0.0,30.0,39.966,0.0,1.0,0.8828,
154.5975,0.8809,0.0,30.0,39.92,0.0,1.0,0.8809,
155.256,0.8841,0.0,30.029,39.895,0.0,1.0,0.8841,
155.456,0.9402,0.0,32.029,39.891,0.0,1.0,0.9402,
155.656,1.0005,0.0,34.025,39.891,0.0,1.0,1.0005,
155.856,1.0595,0.0,36.02,39.891,0.0,1.0,1.0595,
156.056,1.1197,0.0,38.016,39.891,0.0,1.0,1.1197,
156.256,-0.2582,0.0,40.012,41.145,0.0,1.0,-0.2582,
156.456,0.5197,0.0,42.012,43.104,0.0,1.0,0.5197,
156.656,0.622,0.0,44.008,45.062,0.0,1.0,0.622,
156.856,0.683,0.0,46.004,47.041,0.0,1.0,0.683,
157.056,0.7404,0.0,48.0,49.02,0.0,1.0,0.7404,
157.256,0.7956,0.0,50.0,50.991,0.0,1.0,0.7956,
157.456,0.8524,0.0,51.995,52.966,0.0,1.0,0.8524,
157.656,0.9069,0.0,53.991,54.941,0.0,1.0,0.9069,
157.856,0.9632,0.0,55.987,56.929,0.0,1.0,0.9632,
158.056,1.0189,0.0,57.983,58.916,0.0,1.0,1.0189,
158.256,1.074,0.0,59.983,60.895,0.0,1.0,1.074,
158.456,1.1314,0.0,61.979,62.875,0.0,1.0,1.1314,
158.656,1.1878,0.0,63.975,64.866,0.0,1.0,1.1878,
158.856,1.2437,0.0,65.97,66.854,0.0,1.0,1.2437,
159.056,1.3006,0.0,67.966,68.837,0.0,1.0,1.3006,
159.256,1.3563,0.0,69.966,70.829,0.0,1.0,1.3563,
159.456,1.4122,0.0,71.962,72.816,0.0,1.0,1.4122,
159.656,1.4664,0.0,73.958,74.808,0.0,1.0,1.4664,
159.856,1.5243,0.0,75.954,76.804,0.0,1.0,1.5243,
160.056,1.5819,0.0,77.954,78.795,0.0,1.0,1.5819,
160.256,1.639,0.0,79.95,80.783,0.0,1.0,1.639,
160.456,1.6941,0.0,81.945,82.779,0.0,1.0,1.6941,
160.656,1.7515,0.0,83.941,84.775,0.0,1.0,1.7515,
160.856,1.8121,0.0,85.937,86.758,0.0,1.0,1.8121,
161.056,1.865,0.0,87.937,88.741,0.0,1.0,1.865,
161.256,1.9287,0.0,89.933,90.733,0.0,1.0,1.9287,
161.456,1.9836,0.0,91.929,92.72,0.0,1.0,1.9836,
161.656,2.042,0.0,93.925,94.712,0.0,1.0,2.042,
161.856,2.1003,0.0,95.92,96.7,0.0,1.0,2.1003,
162.056,2.157,0.0,97.92,98.691,0.0,1.0,2.157,
162.256,2.2196,0.0,99.916,100.679,0.0,1.0,2.2196,
162.456,2.2634,0.0,101.912,102.675,0.0,1.0,2.2634,
162.656,2.334,0.0,103.908,104.662,0.0,1.0,2.334,
162.856,2.3971,0.0,105.908,106.654,0.0,1.0,2.3971,
163.056,2.4578,0.0,107.904,108.637,0.0,1.0,2.4578,
163.256,2.5188,0.0,109.9,110.637,0.0,1.0,2.5188,
163.456,2.5836,0.0,111.895,112.625,0.0,1.0,2.5836,
163.656,2.6418,0.0,113.891,114.616,0.0,1.0,2.6418,
163.856,2.7086,0.0,115.891,116.608,0.0,1.0,2.7086,
164.056,2.7705,0.0,117.887,118.604,0.0,1.0,2.7705,
164.256,2.8316,0.0,119.883,120.6,0.0,1.0,2.8316,
164.456,2.8945,0.0,121.879,122.583,0.0,1.0,2.8945,
164.656,2.9562,0.0,123.875,124.583,0.0,1.0,2.9562,
164.856,3.0257,0.0,125.875,126.57,0.0,1.0,3.0257,
165.056,3.0877,0.0,127.87,128.57,0.0,1.0,3.0877,
165.256,3.1555,0.0,129.866,130.558,0.0,1.0,3.1555,
165.456,3.2172,0.0,131.862,132.562,0.0,1.0,3.2172,
165.656,3.2875,0.0,133.858,134.55,0.0,1.0,3.2875,
165.856,3.3538,0.0,135.858,136.55,0.0,1.0,3.3538,
166.056,3.4188,0.0,137.854,138.55,0.0,1.0,3.4188,
166.256,3.4853,0.0,139.85,140.55,0.0,1.0,3.4853,
166.456,3.5579,0.0,141.845,142.537,0.0,1.0,3.5579,
166.656,3.6268,0.0,143.845,144.525,0.0,1.0,3.6268,
166.856,3.7008,0.0,145.841,146.525,0.0,1.0,3.7008,
167.056,3.7674,0.0,147.837,148.512,0.0,1.0,3.7674,
167.256,3.8396,0.0,149.833,150.504,0.0,1.0,3.8396,
167.456,3.9163,0.0,151.829,152.491,0.0,1.0,3.9163,
167.656,3.9864,0.0,153.829,154.487,0.0,1.0,3.9864,
167.856,4.0609,0.0,155.825,156.479,0.0,1.0,4.0609,
168.056,4.133,0.0,157.82,158.479,0.0,1.0,4.133,
168.256,4.205,0.0,159.816,160.47,0.0,1.0,4.205,
168.456,4.2767,0.0,161.812,162.466,0.0,1.0,4.2767,
168.656,4.3483,0.0,163.812,164.462,0.0,1.0,4.3483,
168.856,4.4248,0.0,165.808,166.454,0.0,1.0,4.4248,
169.056,4.4959,0.0,167.804,168.454,0.0,1.0,4.4959,
169.256,4.5661,0.0,169.8,170.45,0.0,1.0,4.5661,
169.456,4.6451,0.0,171.8,172.445,0.0,1.0,4.6451,
169.656,4.7225,0.0,173.795,174.437,0.0,1.0,4.7225,
169.856,4.7927,0.0,175.791,176.433,0.0,1.0,4.7927,
170.056,4.8718,0.0,177.787,178.429,0.0,1.0,4.8718,
170.256,4.951,0.0,179.783,180.42,0.0,1.0,4.951,
170.456,5.0281,0.0,181.783,182.412,0.0,1.0,5.0281,
170.656,5.1069,0.0,183.779,184.412,0.0,1.0,5.1069,
170.856,5.185,0.0,185.775,186.412,0.0,1.0,5.185,
171.056,5.2647,0.0,187.77,188.408,0.0,1.0,5.2647,
171.256,5.3423,0.0,189.766,190.404,0.0,1.0,5.3423,
171.456,5.4241,0.0,191.766,192.404,0.0,1.0,5.4241,
171.656,5.499,0.0,193.762,194.395,0.0,1.0,5.499,
171.856,5.5839,0.0,195.758,196.395,0.0,1.0,5.5839,
172.056,5.6699,0.0,197.754,198.387,0.0,1.0,5.6699,
172.256,5.7513,0.0,199.754,200.375,0.0,1.0,5.7513,
172.456,5.8352,0.0,201.75,202.37,0.0,1.0,5.8352,
172.656,5.9207,0.0,203.745,204.362,0.0,1.0,5.9207,
172.856,6.0084,0.0,205.741,206.358,0.0,1.0,6.0084,
173.056,6.0928,0.0,207.737,208.345,0.0,1.0,6.0928,
173.256,6.1809,0.0,209.737,210.341,0.0,1.0,6.1809,
173.456,6.2706,0.0,211.733,212.333,0.0,1.0,6.2706,
173.656,6.3562,0.0,213.729,214.329,0.0,1.0,6.3562,
173.856,6.4468,0.0,215.725,216.325,0.0,1.0,6.4468,
174.056,6.5374,0.0,217.72,218.32,0.0,1.0,6.5374,
174.256,6.6283,0.0,219.72,220.308,0.0,1.0,6.6283,
174.456,6.7191,0.0,221.716,222.304,0.0,1.0,6.7191,
174.656,6.8135,0.0,223.712,224.304,0.0,1.0,6.8135,
174.856,6.9066,0.0,225.708,226.295,0.0,1.0,6.9066,
175.056,7.0009,0.0,227.704,228.3,0.0,1.0,7.0009,
175.256,7.0953,0.0,229.704,230.291,0.0,1.0,7.0953,
175.456,7.1903,0.0,231.7,232.291,0.0,1.0,7.1903,
175.656,7.2871,0.0,233.695,234.283,0.0,1.0,7.2871,
175.856,7.3854,0.0,235.691,236.291,0.0,1.0,7.3854,
176.056,7.4679,0.0,237.691,238.279,0.0,1.0,7.4679,
176.256,7.5805,0.0,239.687,240.279,0.0,1.0,7.5805,
176.456,7.6793,0.0,241.683,242.279,0.0,1.0,7.6793,
176.656,7.779,0.0,243.679,244.279,0.0,1.0,7.779,
176.856,7.8802,0.0,245.675,246.27,0.0,1.0,7.8802,
177.056,7.9828,0.0,247.675,248.27,0.0,1.0,7.9828,
177.256,8.0886,0.0,249.67,250.262,0.0,1.0,8.0886,
177.456,8.1966,0.0,251.666,252.254,0.0,1.0,8.1966,
177.656,8.3012,0.0,253.662,254.254,0.0,1.0,8.3012,
177.856,8.4092,0.0,255.658,256.241,0.0,1.0,8.4092,
178.056,8.5169,0.0,257.658,258.233,0.0,1.0,8.5169,
178.256,8.6262,0.0,259.654,260.225,0.0,1.0,8.6262,
178.456,8.7374,0.0,261.65,262.225,0.0,1.0,8.7374,
178.656,8.8477,0.0,263.645,264.22,0.0,1.0,8.8477,
178.856,8.9615,0.0,265.645,266.208,0.0,1.0,8.9615,
179.056,9.0734,0.0,267.641,268.2,0.0,1.0,9.0734,
179.256,9.187,0.0,269.637,270.2,0.0,1.0,9.187,
179.456,9.3026,0.0,271.633,272.2,0.0,1.0,9.3026,
179.656,9.4192,0.0,273.629,274.191,0.0,1.0,9.4192,
179.856,9.5366,0.0,275.629,276.187,0.0,1.0,9.5366,
180.056,9.6567,0.0,277.625,278.183,0.0,1.0,9.6567,
180.256,9.7749,0.0,279.62,280.183,0.0,1.0,9.7749,
180.456,9.8989,0.0,281.616,282.179,0.0,1.0,9.8989,
180.656,10.0227,0.0,283.612,284.175,0.0,1.0,10.0227,
180.856,10.1483,0.0,285.612,286.17,0.0,1.0,10.1483,
181.056,10.2715,0.0,287.608,288.17,0.0,1.0,10.2715,
181.256,10.4003,0.0,289.604,290.166,0.0,1.0,10.4003,
181.456,10.5291,0.0,291.6,292.166,0.0,1.0,10.5291,
181.656,10.6568,0.0,293.6,294.162,0.0,1.0,10.6568,
181.856,10.7843,0.0,295.595,296.162,0.0,1.0,10.7843,
182.056,10.9135,0.0,297.591,298.158,0.0,1.0,10.9135,
182.256,11.0382,0.0,299.587,300.158,0.0,1.0,11.0382,
182.456,11.1614,0.0,301.583,302.158,0.0,1.0,11.1614,
182.656,11.2922,0.0,303.583,304.158,0.0,1.0,11.2922,
182.856,11.4235,0.0,305.579,306.15,0.0,1.0,11.4235,
183.056,11.5579,0.0,307.575,308.145,0.0,1.0,11.5579,
183.256,11.6932,0.0,309.57,310.141,0.0,1.0,11.6932,
183.456,11.8304,0.0,311.566,312.141,0.0,1.0,11.8304,
183.656,11.9732,0.0,313.566,314.133,0.0,1.0,11.9732,
183.856,12.1124,0.0,315.562,316.133,0.0,1.0,12.1124,
184.056,12.2578,0.0,317.558,318.133,0.0,1.0,12.2578,
184.256,12.4105,0.0,319.554,320.129,0.0,1.0,12.4105,
184.456,12.5628,0.0,321.55,322.12,0.0,1.0,12.5628,
184.656,12.7193,0.0,323.55,324.112,0.0,1.0,12.7193,
184.856,12.8814,0.0,325.545,326.108,0.0,1.0,12.8814,
185.056,13.0499,0.0,327.541,328.1,0.0,1.0,13.0499,
185.256,13.2293,0.0,329.537,330.095,0.0,1.0,13.2293,
185.456,13.4213,0.0,331.537,332.087,0.0,1.0,13.4213,
185.656,13.6351,0.0,333.533,334.087,0.0,1.0,13.6351,
185.856,13.8791,0.0,335.529,336.075,0.0,1.0,13.8791,
186.056,14.1365,0.0,337.525,338.079,0.0,1.0,14.1365,
186.256,14.2607,0.0,339.52,340.075,0.0,1.0,14.2607,
186.456,14.1612,0.0,341.52,342.07,0.0,1.0,14.1612,
186.656,14.14,0.0,343.516,344.066,0.0,1.0,14.14,
186.856,14.2417,0.0,345.512,346.062,0.0,1.0,14.2417,
187.056,14.381,0.0,347.508,348.066,0.0,1.0,14.381,
187.256,14.533,0.0,349.504,350.066,0.0,1.0,14.533,
187.456,14.6929,0.0,351.504,352.058,0.0,1.0,14.6929,
187.656,14.849,0.0,353.5,354.058,0.0,1.0,14.849,
187.856,15.0053,0.0,355.495,356.058,0.0,1.0,15.0053,
188.056,15.1728,0.0,357.491,358.054,0.0,1.0,15.1728,
188.256,15.3368,0.0,359.491,360.058,0.0,1.0,15.3368,
188.456,15.5086,0.0,361.487,362.058,0.0,1.0,15.5086,
188.656,15.6745,0.0,363.483,364.05,0.0,1.0,15.6745,
188.856,15.8404,0.0,365.479,366.037,0.0,1.0,15.8404,
189.056,16.013,0.0,367.475,368.037,0.0,1.0,16.013,
189.256,16.1894,0.0,369.475,370.033,0.0,1.0,16.1894,
189.456,16.3593,0.0,371.47,372.029,0.0,1.0,16.3593,
189.656,16.5324,0.0,373.466,374.016,0.0,1.0,16.5324,
189.856,16.7094,0.0,375.462,376.012,0.0,1.0,16.7094,
190.056,16.8837,0.0,377.458,378.012,0.0,1.0,16.8837,
190.256,17.0589,0.0,379.458,380.008,0.0,1.0,17.0589,
190.306,17.1016,0.0,379.954,380.508,0.0,1.0,17.1016,