File: Chapter4_Crystallinity-measurement/data/DSC/500907_1.csv
Time,Unsubtracted Heat Flow,Baseline Heat Flow,Program Temperature,Sample Temperature,Approx. Gas Flow,Heat Flow Calibration,Uncorrected Heat Flow,
0.0,1.7259,0.0,30.0,30.641,0.0,1.0,1.7259,
0.666667,1.9562,0.0,30.0,30.645,0.0,1.0,1.9562,
1.333333,1.959,0.0,30.0,30.645,0.0,1.0,1.959,
2.0,1.9568,0.0,30.0,30.645,0.0,1.0,1.9568,
2.666667,1.9594,0.0,30.0,30.641,0.0,1.0,1.9594,
3.333333,1.9581,0.0,30.0,30.637,0.0,1.0,1.9581,
4.0,1.9629,0.0,30.0,30.641,0.0,1.0,1.9629,
4.666667,1.9639,0.0,30.0,30.641,0.0,1.0,1.9639,
5.333333,1.7036,0.0,33.254,33.445,0.0,1.0,1.7036,
6.0,1.9109,0.0,39.912,40.07,0.0,1.0,1.9109,
6.666667,2.0896,0.0,46.566,46.712,0.0,1.0,2.0896,
7.333333,2.2634,0.0,53.22,53.35,0.0,1.0,2.2634,
8.0,2.4339,0.0,59.879,60.004,0.0,1.0,2.4339,
8.666667,2.6021,0.0,66.533,66.654,0.0,1.0,2.6021,
9.333333,2.7795,0.0,73.187,73.32,0.0,1.0,2.7795,
10.0,2.951,0.0,79.845,79.983,0.0,1.0,2.951,
10.6667,3.1296,0.0,86.5,86.645,0.0,1.0,3.1296,
11.3333,3.3013,0.0,93.158,93.287,0.0,1.0,3.3013,
12.0,3.464,0.0,99.812,99.933,0.0,1.0,3.464,
12.6667,3.6745,0.0,106.466,106.583,0.0,1.0,3.6745,
13.3333,3.8695,0.0,113.125,113.237,0.0,1.0,3.8695,
14.0,4.0631,0.0,119.779,119.891,0.0,1.0,4.0631,
14.6667,4.2694,0.0,126.433,126.537,0.0,1.0,4.2694,
15.3333,4.4725,0.0,133.091,133.2,0.0,1.0,4.4725,
16.0,4.6941,0.0,139.745,139.866,0.0,1.0,4.6941,
16.6667,4.9731,0.0,146.404,146.512,0.0,1.0,4.9731,
17.3333,5.1753,0.0,153.058,153.15,0.0,1.0,5.1753,
18.0,5.2566,0.0,159.712,159.808,0.0,1.0,5.2566,
18.6667,5.5305,0.0,166.37,166.462,0.0,1.0,5.5305,
19.3333,4.7356,0.0,173.025,173.12,0.0,1.0,4.7356,
20.0,6.0065,0.0,179.679,179.77,0.0,1.0,6.0065,
20.6667,6.2569,0.0,186.337,186.433,0.0,1.0,6.2569,
21.3333,6.491,0.0,192.991,193.091,0.0,1.0,6.491,
22.0,6.744,0.0,199.65,199.741,0.0,1.0,6.744,
22.6667,7.0155,0.0,206.304,206.391,0.0,1.0,7.0155,
23.3333,7.2862,0.0,212.958,213.037,0.0,1.0,7.2862,
24.0,7.5598,0.0,219.616,219.687,0.0,1.0,7.5598,
24.6667,7.8396,0.0,226.27,226.345,0.0,1.0,7.8396,
25.3333,8.1316,0.0,232.925,233.012,0.0,1.0,8.1316,
26.0,8.4314,0.0,239.583,239.67,0.0,1.0,8.4314,
26.6667,8.7391,0.0,246.237,246.337,0.0,1.0,8.7391,
27.3333,9.0529,0.0,252.895,252.991,0.0,1.0,9.0529,
28.0,9.3867,0.0,259.55,259.633,0.0,1.0,9.3867,
28.6667,9.7277,0.0,266.204,266.287,0.0,1.0,9.7277,
29.3333,10.0718,0.0,272.862,272.941,0.0,1.0,10.0718,
30.0,10.4144,0.0,279.516,279.6,0.0,1.0,10.4144,
30.6667,10.7796,0.0,286.175,286.254,0.0,1.0,10.7796,
31.3333,11.159,0.0,292.829,292.92,0.0,1.0,11.159,
32.0,11.5559,0.0,299.483,299.583,0.0,1.0,11.5559,
32.6667,11.9756,0.0,306.141,306.241,0.0,1.0,11.9756,
33.3333,12.4249,0.0,312.795,312.9,0.0,1.0,12.4249,
34.0,12.9026,0.0,319.45,319.55,0.0,1.0,12.9026,
34.6667,13.4399,0.0,326.108,326.2,0.0,1.0,13.4399,
35.3333,14.0516,0.0,332.762,332.85,0.0,1.0,14.0516,
36.0,14.6376,0.0,339.42,339.504,0.0,1.0,14.6376,
36.6667,14.6693,0.0,346.075,346.158,0.0,1.0,14.6693,
37.3333,15.0485,0.0,352.729,352.816,0.0,1.0,15.0485,
38.0,15.5515,0.0,359.387,359.487,0.0,1.0,15.5515,
38.6667,16.0637,0.0,366.041,366.133,0.0,1.0,16.0637,
39.3333,16.5822,0.0,372.695,372.787,0.0,1.0,16.5822,
40.0,17.1205,0.0,379.354,379.441,0.0,1.0,17.1205,
40.2443,17.0249,0.0,378.191,378.737,0.0,1.0,17.0249,
40.4443,16.7787,0.0,376.195,376.737,0.0,1.0,16.7787,
40.6443,16.606,0.0,374.2,374.741,0.0,1.0,16.606,
40.8443,16.4406,0.0,372.204,372.754,0.0,1.0,16.4406,
41.0443,16.2776,0.0,370.208,370.758,0.0,1.0,16.2776,
41.2443,16.1173,0.0,368.208,368.762,0.0,1.0,16.1173,
41.4443,15.9543,0.0,366.212,366.766,0.0,1.0,15.9543,
41.6443,15.7976,0.0,364.216,364.779,0.0,1.0,15.7976,
41.8443,15.6401,0.0,362.22,362.787,0.0,1.0,15.6401,
42.0443,15.4809,0.0,360.22,360.8,0.0,1.0,15.4809,
42.2443,15.3343,0.0,358.225,358.8,0.0,1.0,15.3343,
42.4443,15.1715,0.0,356.229,356.804,0.0,1.0,15.1715,
42.6443,15.0307,0.0,354.233,354.795,0.0,1.0,15.0307,
42.8443,14.8821,0.0,352.237,352.808,0.0,1.0,14.8821,
43.0443,14.738,0.0,350.237,350.808,0.0,1.0,14.738,
43.2443,14.5956,0.0,348.241,348.808,0.0,1.0,14.5956,
43.4443,14.453,0.0,346.245,346.812,0.0,1.0,14.453,
43.6443,14.3122,0.0,344.25,344.812,0.0,1.0,14.3122,
43.8443,14.1704,0.0,342.254,342.812,0.0,1.0,14.1704,
44.0443,14.0326,0.0,340.254,340.816,0.0,1.0,14.0326,
44.2443,13.901,0.0,338.258,338.825,0.0,1.0,13.901,
44.4443,13.7643,0.0,336.262,336.82,0.0,1.0,13.7643,
44.6443,13.6316,0.0,334.266,334.829,0.0,1.0,13.6316,
44.8443,13.5044,0.0,332.266,332.833,0.0,1.0,13.5044,
45.0443,13.3751,0.0,330.27,330.841,0.0,1.0,13.3751,
45.2443,13.2469,0.0,328.275,328.854,0.0,1.0,13.2469,
45.4443,13.1169,0.0,326.279,326.854,0.0,1.0,13.1169,
45.6443,12.9909,0.0,324.283,324.862,0.0,1.0,12.9909,
45.8443,12.8681,0.0,322.283,322.866,0.0,1.0,12.8681,
46.0443,12.7426,0.0,320.287,320.875,0.0,1.0,12.7426,
46.2443,12.6184,0.0,318.291,318.879,0.0,1.0,12.6184,
46.4443,12.4993,0.0,316.295,316.887,0.0,1.0,12.4993,
46.6443,12.3745,0.0,314.3,314.891,0.0,1.0,12.3745,
46.8443,12.2562,0.0,312.3,312.895,0.0,1.0,12.2562,
47.0443,12.1354,0.0,310.304,310.9,0.0,1.0,12.1354,
47.2443,12.0202,0.0,308.308,308.904,0.0,1.0,12.0202,
47.4443,11.9018,0.0,306.312,306.904,0.0,1.0,11.9018,
47.6443,11.7809,0.0,304.316,304.912,0.0,1.0,11.7809,
47.8443,11.6421,0.0,302.316,302.92,0.0,1.0,11.6421,
48.0443,11.4093,0.0,300.32,300.92,0.0,1.0,11.4093,
48.2443,10.6539,0.0,298.325,298.92,0.0,1.0,10.6539,
48.4443,9.0776,0.0,296.329,296.925,0.0,1.0,9.0776,
48.6443,9.8637,0.0,294.329,294.925,0.0,1.0,9.8637,
48.8443,10.7455,0.0,292.333,292.929,0.0,1.0,10.7455,
49.0443,10.806,0.0,290.337,290.933,0.0,1.0,10.806,
49.2443,10.7553,0.0,288.341,288.933,0.0,1.0,10.7553,
49.4443,10.6794,0.0,286.345,286.929,0.0,1.0,10.6794,
49.6443,10.5947,0.0,284.345,284.941,0.0,1.0,10.5947,
49.8443,10.5029,0.0,282.35,282.945,0.0,1.0,10.5029,
50.0443,10.4072,0.0,280.354,280.941,0.0,1.0,10.4072,
50.2443,10.3136,0.0,278.358,278.95,0.0,1.0,10.3136,
50.4443,10.2165,0.0,276.362,276.945,0.0,1.0,10.2165,
50.6443,10.1239,0.0,274.362,274.958,0.0,1.0,10.1239,
50.8443,10.0274,0.0,272.366,272.962,0.0,1.0,10.0274,
51.0443,9.9314,0.0,270.37,270.97,0.0,1.0,9.9314,
51.2443,9.838,0.0,268.375,268.97,0.0,1.0,9.838,
51.4443,9.7383,0.0,266.375,266.983,0.0,1.0,9.7383,
51.6443,9.6467,0.0,264.379,264.979,0.0,1.0,9.6467,
51.8443,9.5531,0.0,262.383,262.987,0.0,1.0,9.5531,
52.0443,9.4592,0.0,260.387,260.991,0.0,1.0,9.4592,
52.2443,9.3665,0.0,258.391,259.0,0.0,1.0,9.3665,
52.4443,9.2774,0.0,256.391,257.004,0.0,1.0,9.2774,
52.6443,9.1869,0.0,254.395,255.008,0.0,1.0,9.1869,
52.8443,9.0979,0.0,252.4,253.025,0.0,1.0,9.0979,
53.0443,9.0081,0.0,250.404,251.029,0.0,1.0,9.0081,
53.2443,8.9154,0.0,248.408,249.033,0.0,1.0,8.9154,
53.4443,8.8325,0.0,246.408,247.033,0.0,1.0,8.8325,
53.6443,8.7405,0.0,244.412,245.05,0.0,1.0,8.7405,
53.8443,8.656,0.0,242.416,243.045,0.0,1.0,8.656,
54.0443,8.571,0.0,240.42,241.045,0.0,1.0,8.571,
54.2443,8.4833,0.0,238.42,239.05,0.0,1.0,8.4833,
54.4443,8.3971,0.0,236.425,237.05,0.0,1.0,8.3971,
54.6443,8.3098,0.0,234.429,235.054,0.0,1.0,8.3098,
54.8443,8.2209,0.0,232.433,233.058,0.0,1.0,8.2209,
55.0443,8.1341,0.0,230.437,231.054,0.0,1.0,8.1341,
55.2443,8.0504,0.0,228.437,229.062,0.0,1.0,8.0504,
55.4443,7.9723,0.0,226.441,227.062,0.0,1.0,7.9723,
55.6443,7.8908,0.0,224.445,225.07,0.0,1.0,7.8908,
55.8443,7.808,0.0,222.45,223.07,0.0,1.0,7.808,
56.0443,7.7281,0.0,220.454,221.079,0.0,1.0,7.7281,
56.2443,7.6434,0.0,218.454,219.083,0.0,1.0,7.6434,
56.4443,7.5662,0.0,216.458,217.083,0.0,1.0,7.5662,
56.6443,7.4864,0.0,214.462,215.091,0.0,1.0,7.4864,
56.8443,7.409,0.0,212.466,213.095,0.0,1.0,7.409,
57.0443,7.3294,0.0,210.47,211.104,0.0,1.0,7.3294,
57.2443,7.2547,0.0,208.47,209.108,0.0,1.0,7.2547,
57.4443,7.1772,0.0,206.475,207.12,0.0,1.0,7.1772,
57.6443,7.0992,0.0,204.479,205.12,0.0,1.0,7.0992,
57.8443,7.0259,0.0,202.483,203.129,0.0,1.0,7.0259,
58.0443,6.948,0.0,200.483,201.133,0.0,1.0,6.948,
58.2443,6.8682,0.0,198.487,199.141,0.0,1.0,6.8682,
58.4443,6.8004,0.0,196.491,197.15,0.0,1.0,6.8004,
58.6443,6.7265,0.0,194.495,195.162,0.0,1.0,6.7265,
58.8443,6.6529,0.0,192.5,193.166,0.0,1.0,6.6529,
59.0443,6.579,0.0,190.5,191.17,0.0,1.0,6.579,
59.2443,6.5105,0.0,188.504,189.179,0.0,1.0,6.5105,
59.4443,6.4368,0.0,186.508,187.179,0.0,1.0,6.4368,
59.6443,6.3629,0.0,184.512,185.179,0.0,1.0,6.3629,
59.8443,6.2955,0.0,182.516,183.183,0.0,1.0,6.2955,
60.0443,6.2187,0.0,180.516,181.187,0.0,1.0,6.2187,
60.2443,6.1504,0.0,178.52,179.195,0.0,1.0,6.1504,
60.4443,6.0847,0.0,176.525,177.208,0.0,1.0,6.0847,
60.6443,6.0137,0.0,174.529,175.204,0.0,1.0,6.0137,
60.8443,5.9477,0.0,172.529,173.208,0.0,1.0,5.9477,
61.0443,5.8797,0.0,170.533,171.212,0.0,1.0,5.8797,
61.2443,5.8142,0.0,168.537,169.216,0.0,1.0,5.8142,
61.4443,5.7473,0.0,166.541,167.225,0.0,1.0,5.7473,
61.6443,5.6822,0.0,164.545,165.225,0.0,1.0,5.6822,
61.8443,5.619,0.0,162.545,163.229,0.0,1.0,5.619,
62.0443,5.5565,0.0,160.55,161.233,0.0,1.0,5.5565,
62.2443,5.4919,0.0,158.554,159.237,0.0,1.0,5.4919,
62.4443,5.4331,0.0,156.558,157.241,0.0,1.0,5.4331,
62.6443,5.3739,0.0,154.562,155.241,0.0,1.0,5.3739,
62.8443,5.3147,0.0,152.562,153.25,0.0,1.0,5.3147,
63.0443,5.258,0.0,150.566,151.262,0.0,1.0,5.258,
63.2443,5.1953,0.0,148.57,149.266,0.0,1.0,5.1953,
63.4443,5.1413,0.0,146.575,147.275,0.0,1.0,5.1413,
63.6443,5.0663,0.0,144.575,145.283,0.0,1.0,5.0663,
63.8443,5.0243,0.0,142.579,143.291,0.0,1.0,5.0243,
64.0443,4.9668,0.0,140.583,141.304,0.0,1.0,4.9668,
64.2443,4.9112,0.0,138.587,139.308,0.0,1.0,4.9112,
64.4443,4.8529,0.0,136.591,137.312,0.0,1.0,4.8529,
64.6443,4.7949,0.0,134.591,135.308,0.0,1.0,4.7949,
64.8443,4.7422,0.0,132.595,133.325,0.0,1.0,4.7422,
65.0443,4.6849,0.0,130.6,131.325,0.0,1.0,4.6849,
65.2443,4.6306,0.0,128.604,129.329,0.0,1.0,4.6306,
65.4443,4.5711,0.0,126.608,127.333,0.0,1.0,4.5711,
65.6443,4.514,0.0,124.608,125.337,0.0,1.0,4.514,
65.8443,4.4593,0.0,122.612,123.345,0.0,1.0,4.4593,
66.0443,4.4049,0.0,120.616,121.35,0.0,1.0,4.4049,
66.2443,4.35,0.0,118.62,119.358,0.0,1.0,4.35,
66.4443,4.2967,0.0,116.625,117.362,0.0,1.0,4.2967,
66.6443,4.2432,0.0,114.625,115.37,0.0,1.0,4.2432,
66.8443,4.1879,0.0,112.629,113.375,0.0,1.0,4.1879,
67.0443,4.1346,0.0,110.633,111.387,0.0,1.0,4.1346,
67.2443,4.077,0.0,108.637,109.387,0.0,1.0,4.077,
67.4443,4.0311,0.0,106.637,107.4,0.0,1.0,4.0311,
67.6443,3.9799,0.0,104.641,105.408,0.0,1.0,3.9799,
67.8443,3.9319,0.0,102.645,103.42,0.0,1.0,3.9319,
68.0443,3.8845,0.0,100.65,101.425,0.0,1.0,3.8845,
68.2443,3.832,0.0,98.654,99.433,0.0,1.0,3.832,
68.4443,3.7848,0.0,96.654,97.441,0.0,1.0,3.7848,
68.6443,3.7367,0.0,94.658,95.445,0.0,1.0,3.7367,
68.8443,3.6897,0.0,92.662,93.458,0.0,1.0,3.6897,
69.0443,3.6398,0.0,90.666,91.462,0.0,1.0,3.6398,
69.2443,3.5805,0.0,88.67,89.47,0.0,1.0,3.5805,
69.4443,3.548,0.0,86.67,87.483,0.0,1.0,3.548,
69.6443,3.5027,0.0,84.675,85.5,0.0,1.0,3.5027,
69.8443,3.4608,0.0,82.679,83.508,0.0,1.0,3.4608,
70.0443,3.4173,0.0,80.683,81.512,0.0,1.0,3.4173,
70.2443,3.3742,0.0,78.683,79.516,0.0,1.0,3.3742,
70.4443,3.3268,0.0,76.687,77.525,0.0,1.0,3.3268,
70.6443,3.2816,0.0,74.691,75.529,0.0,1.0,3.2816,
70.8443,3.2391,0.0,72.695,73.533,0.0,1.0,3.2391,
71.0443,3.1971,0.0,70.7,71.537,0.0,1.0,3.1971,
71.2443,3.1553,0.0,68.7,69.545,0.0,1.0,3.1553,
71.4443,3.1098,0.0,66.704,67.558,0.0,1.0,3.1098,
71.6443,3.0651,0.0,64.708,65.566,0.0,1.0,3.0651,
71.8443,3.0226,0.0,62.712,63.57,0.0,1.0,3.0226,
72.0443,2.9791,0.0,60.716,61.579,0.0,1.0,2.9791,
72.2443,2.9363,0.0,58.716,59.6,0.0,1.0,2.9363,
72.4443,2.8965,0.0,56.72,57.608,0.0,1.0,2.8965,
72.6443,2.8554,0.0,54.725,55.62,0.0,1.0,2.8554,
72.8443,2.814,0.0,52.729,53.629,0.0,1.0,2.814,
73.0443,2.7765,0.0,50.729,51.65,0.0,1.0,2.7765,
73.2443,2.7394,0.0,48.733,49.67,0.0,1.0,2.7394,
73.4443,2.7013,0.0,46.737,47.687,0.0,1.0,2.7013,
73.6443,2.6599,0.0,44.741,45.708,0.0,1.0,2.6599,
73.8443,2.6259,0.0,42.745,43.729,0.0,1.0,2.6259,
74.0443,2.5941,0.0,40.745,41.754,0.0,1.0,2.5941,
74.2443,2.5593,0.0,38.75,39.779,0.0,1.0,2.5593,
74.4443,2.5243,0.0,36.754,37.804,0.0,1.0,2.5243,
74.6443,2.4915,0.0,34.758,35.829,0.0,1.0,2.4915,
74.8443,2.4628,0.0,32.762,33.858,0.0,1.0,2.4628,
75.0443,2.4404,0.0,30.762,31.9,0.0,1.0,2.4404,
75.5325,1.9642,0.0,30.0,30.637,0.0,1.0,1.9642,
76.1992,1.9808,0.0,30.0,30.637,0.0,1.0,1.9808,
76.8658,1.9796,0.0,30.0,30.637,0.0,1.0,1.9796,
77.5325,1.9743,0.0,30.0,30.641,0.0,1.0,1.9743,
78.1992,1.973,0.0,30.0,30.641,0.0,1.0,1.973,
78.8658,1.9669,0.0,30.0,30.645,0.0,1.0,1.9669,
79.5325,1.9679,0.0,30.0,30.645,0.0,1.0,1.9679,
80.1502,1.5731,0.0,30.204,30.666,0.0,1.0,1.5731,
80.3502,1.5639,0.0,32.2,32.412,0.0,1.0,1.5639,
80.5502,1.7486,0.0,34.195,34.391,0.0,1.0,1.7486,
80.7502,1.8103,0.0,36.195,36.379,0.0,1.0,1.8103,
80.9502,1.8655,0.0,38.191,38.366,0.0,1.0,1.8655,
81.1502,1.9215,0.0,40.187,40.354,0.0,1.0,1.9215,
81.3502,1.9759,0.0,42.183,42.341,0.0,1.0,1.9759,
81.5502,2.0331,0.0,44.179,44.329,0.0,1.0,2.0331,
81.7502,2.0887,0.0,46.179,46.325,0.0,1.0,2.0887,
81.9502,2.143,0.0,48.175,48.316,0.0,1.0,2.143,
82.1502,2.1964,0.0,50.17,50.3,0.0,1.0,2.1964,
82.3502,2.2519,0.0,52.166,52.295,0.0,1.0,2.2519,
82.5502,2.3068,0.0,54.162,54.283,0.0,1.0,2.3068,
82.7502,2.364,0.0,56.162,56.283,0.0,1.0,2.364,
82.9502,2.4198,0.0,58.158,58.275,0.0,1.0,2.4198,
83.1502,2.4754,0.0,60.154,60.275,0.0,1.0,2.4754,
83.3502,2.5283,0.0,62.15,62.262,0.0,1.0,2.5283,
83.5502,2.5821,0.0,64.15,64.258,0.0,1.0,2.5821,
83.7502,2.6326,0.0,66.145,66.258,0.0,1.0,2.6326,
83.9502,2.6887,0.0,68.141,68.258,0.0,1.0,2.6887,
84.1502,2.7431,0.0,70.137,70.258,0.0,1.0,2.7431,
84.3502,2.7843,0.0,72.133,72.25,0.0,1.0,2.7843,
84.5502,2.8424,0.0,74.133,74.258,0.0,1.0,2.8424,
84.7502,2.8951,0.0,76.129,76.254,0.0,1.0,2.8951,
84.9502,2.9476,0.0,78.125,78.254,0.0,1.0,2.9476,
85.1502,2.9984,0.0,80.12,80.254,0.0,1.0,2.9984,
85.3502,3.0533,0.0,82.116,82.262,0.0,1.0,3.0533,
85.5502,3.1053,0.0,84.116,84.258,0.0,1.0,3.1053,
85.7502,3.1624,0.0,86.112,86.254,0.0,1.0,3.1624,
85.9502,3.2093,0.0,88.108,88.241,0.0,1.0,3.2093,
86.1502,3.2594,0.0,90.104,90.241,0.0,1.0,3.2594,
86.3502,3.3156,0.0,92.104,92.233,0.0,1.0,3.3156,
86.5502,3.3695,0.0,94.1,94.225,0.0,1.0,3.3695,
86.7502,3.423,0.0,96.095,96.22,0.0,1.0,3.423,
86.9502,3.4794,0.0,98.091,98.216,0.0,1.0,3.4794,
87.1502,3.5299,0.0,100.087,100.208,0.0,1.0,3.5299,
87.3502,3.5802,0.0,102.087,102.208,0.0,1.0,3.5802,
87.5502,3.6387,0.0,104.083,104.208,0.0,1.0,3.6387,
87.7502,3.6928,0.0,106.079,106.2,0.0,1.0,3.6928,
87.9502,3.7509,0.0,108.075,108.195,0.0,1.0,3.7509,
88.1502,3.8067,0.0,110.07,110.195,0.0,1.0,3.8067,
88.3502,3.868,0.0,112.07,112.191,0.0,1.0,3.868,
88.5502,3.9226,0.0,114.066,114.183,0.0,1.0,3.9226,
88.7502,3.9859,0.0,116.062,116.179,0.0,1.0,3.9859,
88.9502,4.0394,0.0,118.058,118.175,0.0,1.0,4.0394,
89.1502,4.1027,0.0,120.058,120.17,0.0,1.0,4.1027,
89.3502,4.1653,0.0,122.054,122.166,0.0,1.0,4.1653,
89.5502,4.2281,0.0,124.05,124.162,0.0,1.0,4.2281,
89.7502,4.2915,0.0,126.045,126.154,0.0,1.0,4.2915,
89.9502,4.3528,0.0,128.041,128.154,0.0,1.0,4.3528,
90.1502,4.4196,0.0,130.041,130.15,0.0,1.0,4.4196,
90.3502,4.4727,0.0,132.037,132.15,0.0,1.0,4.4727,
90.5502,4.5397,0.0,134.033,134.145,0.0,1.0,4.5397,
90.7502,4.6053,0.0,136.029,136.141,0.0,1.0,4.6053,
90.9502,4.6714,0.0,138.025,138.145,0.0,1.0,4.6714,
91.1502,4.7366,0.0,140.025,140.141,0.0,1.0,4.7366,
91.3502,4.8007,0.0,142.02,142.137,0.0,1.0,4.8007,
91.5502,4.8712,0.0,144.016,144.129,0.0,1.0,4.8712,
91.7502,4.9346,0.0,146.012,146.125,0.0,1.0,4.9346,
91.9502,5.0052,0.0,148.008,148.116,0.0,1.0,5.0052,
92.1502,5.071,0.0,150.008,150.112,0.0,1.0,5.071,
92.3502,5.1394,0.0,152.004,152.1,0.0,1.0,5.1394,
92.5502,5.2012,0.0,154.0,154.095,0.0,1.0,5.2012,
92.7502,5.2789,0.0,155.995,156.091,0.0,1.0,5.2789,
92.9502,5.3491,0.0,157.995,158.091,0.0,1.0,5.3491,
93.1502,5.4166,0.0,159.991,160.087,0.0,1.0,5.4166,
93.3502,5.4862,0.0,161.987,162.079,0.0,1.0,5.4862,
93.5502,5.552,0.0,163.983,164.079,0.0,1.0,5.552,
93.7502,5.6241,0.0,165.979,166.083,0.0,1.0,5.6241,
93.9502,5.696,0.0,167.979,168.083,0.0,1.0,5.696,
94.1502,5.7657,0.0,169.975,170.079,0.0,1.0,5.7657,
94.3502,5.8318,0.0,171.97,172.079,0.0,1.0,5.8318,
94.5502,5.8988,0.0,173.966,174.07,0.0,1.0,5.8988,
94.7502,5.9683,0.0,175.962,176.07,0.0,1.0,5.9683,
94.9502,6.0458,0.0,177.962,178.062,0.0,1.0,6.0458,
95.1502,6.1192,0.0,179.958,180.058,0.0,1.0,6.1192,
95.3502,6.1929,0.0,181.954,182.054,0.0,1.0,6.1929,
95.5502,6.2637,0.0,183.95,184.054,0.0,1.0,6.2637,
95.7502,6.3323,0.0,185.95,186.045,0.0,1.0,6.3323,
95.9502,6.4112,0.0,187.945,188.05,0.0,1.0,6.4112,
96.1502,6.4897,0.0,189.941,190.045,0.0,1.0,6.4897,
96.3502,6.5635,0.0,191.937,192.045,0.0,1.0,6.5635,
96.5502,6.6421,0.0,193.933,194.041,0.0,1.0,6.6421,
96.7502,6.7217,0.0,195.933,196.037,0.0,1.0,6.7217,
96.9502,6.8019,0.0,197.929,198.029,0.0,1.0,6.8019,
97.1502,6.8821,0.0,199.925,200.025,0.0,1.0,6.8821,
97.3502,6.9609,0.0,201.92,202.012,0.0,1.0,6.9609,
97.5502,7.0389,0.0,203.916,204.012,0.0,1.0,7.0389,
97.7502,7.1173,0.0,205.916,206.008,0.0,1.0,7.1173,
97.9502,7.1998,0.0,207.912,207.995,0.0,1.0,7.1998,
98.1502,7.2812,0.0,209.908,209.991,0.0,1.0,7.2812,
98.3502,7.3645,0.0,211.904,211.983,0.0,1.0,7.3645,
98.5502,7.4499,0.0,213.904,213.983,0.0,1.0,7.4499,
98.7502,7.5297,0.0,215.9,215.979,0.0,1.0,7.5297,
98.9502,7.6123,0.0,217.895,217.975,0.0,1.0,7.6123,
99.1502,7.6973,0.0,219.891,219.97,0.0,1.0,7.6973,
99.3502,7.7822,0.0,221.887,221.966,0.0,1.0,7.7822,
99.5502,7.8687,0.0,223.887,223.966,0.0,1.0,7.8687,
99.7502,7.9526,0.0,225.883,225.962,0.0,1.0,7.9526,
99.9502,8.0366,0.0,227.879,227.958,0.0,1.0,8.0366,
100.15,8.1263,0.0,229.875,229.958,0.0,1.0,8.1263,
100.35,8.2137,0.0,231.87,231.958,0.0,1.0,8.2137,
100.55,8.3028,0.0,233.87,233.954,0.0,1.0,8.3028,
100.75,8.3916,0.0,235.866,235.954,0.0,1.0,8.3916,
100.95,8.4834,0.0,237.862,237.95,0.0,1.0,8.4834,
101.15,8.5786,0.0,239.858,239.95,0.0,1.0,8.5786,
101.35,8.667,0.0,241.858,241.95,0.0,1.0,8.667,
101.55,8.7619,0.0,243.854,243.95,0.0,1.0,8.7619,
101.75,8.8545,0.0,245.85,245.945,0.0,1.0,8.8545,
101.95,8.9505,0.0,247.845,247.937,0.0,1.0,8.9505,
102.15,9.0484,0.0,249.841,249.937,0.0,1.0,9.0484,
102.35,9.3211,0.0,251.841,251.933,0.0,1.0,9.3211,
102.55,9.3245,0.0,253.837,253.92,0.0,1.0,9.3245,
102.75,9.4199,0.0,255.833,255.916,0.0,1.0,9.4199,
102.95,9.5242,0.0,257.829,257.908,0.0,1.0,9.5242,
103.15,9.6241,0.0,259.825,259.904,0.0,1.0,9.6241,
103.35,9.7258,0.0,261.825,261.904,0.0,1.0,9.7258,
103.55,9.8264,0.0,263.82,263.891,0.0,1.0,9.8264,
103.75,9.9327,0.0,265.816,265.883,0.0,1.0,9.9327,
103.95,10.0383,0.0,267.812,267.879,0.0,1.0,10.0383,
104.15,10.1411,0.0,269.808,269.879,0.0,1.0,10.1411,
104.35,10.2508,0.0,271.808,271.879,0.0,1.0,10.2508,
104.55,10.3554,0.0,273.804,273.87,0.0,1.0,10.3554,
104.75,10.4637,0.0,275.8,275.866,0.0,1.0,10.4637,
104.95,10.572,0.0,277.795,277.862,0.0,1.0,10.572,
105.15,10.6883,0.0,279.795,279.862,0.0,1.0,10.6883,
105.35,10.7893,0.0,281.791,281.862,0.0,1.0,10.7893,
105.55,10.8994,0.0,283.787,283.854,0.0,1.0,10.8994,
105.75,11.0158,0.0,285.783,285.854,0.0,1.0,11.0158,
105.95,11.1287,0.0,287.779,287.854,0.0,1.0,11.1287,
106.15,11.2431,0.0,289.779,289.85,0.0,1.0,11.2431,
106.35,11.3631,0.0,291.775,291.85,0.0,1.0,11.3631,
106.55,11.4847,0.0,293.77,293.845,0.0,1.0,11.4847,
106.75,11.6023,0.0,295.766,295.845,0.0,1.0,11.6023,
106.95,11.7209,0.0,297.762,297.841,0.0,1.0,11.7209,
107.15,11.8377,0.0,299.762,299.845,0.0,1.0,11.8377,
107.35,11.9535,0.0,301.758,301.845,0.0,1.0,11.9535,
107.55,12.069,0.0,303.754,303.845,0.0,1.0,12.069,
107.75,12.1878,0.0,305.75,305.837,0.0,1.0,12.1878,
107.95,12.3136,0.0,307.75,307.837,0.0,1.0,12.3136,
108.15,12.4427,0.0,309.745,309.833,0.0,1.0,12.4427,
108.35,12.5688,0.0,311.741,311.833,0.0,1.0,12.5688,
108.55,12.703,0.0,313.737,313.829,0.0,1.0,12.703,
108.75,12.835,0.0,315.733,315.82,0.0,1.0,12.835,
108.95,12.9703,0.0,317.733,317.816,0.0,1.0,12.9703,
109.15,13.1091,0.0,319.729,319.812,0.0,1.0,13.1091,
109.35,13.2503,0.0,321.725,321.804,0.0,1.0,13.2503,
109.55,13.4,0.0,323.72,323.804,0.0,1.0,13.4,
109.75,13.5509,0.0,325.716,325.795,0.0,1.0,13.5509,
109.95,13.7135,0.0,327.716,327.791,0.0,1.0,13.7135,
110.15,13.8819,0.0,329.712,329.791,0.0,1.0,13.8819,
110.35,14.0799,0.0,331.708,331.779,0.0,1.0,14.0799,
110.55,14.3158,0.0,333.704,333.775,0.0,1.0,14.3158,
110.75,14.5504,0.0,335.704,335.762,0.0,1.0,14.5504,
110.95,14.8154,0.0,337.7,337.766,0.0,1.0,14.8154,
111.15,14.9645,0.0,339.695,339.758,0.0,1.0,14.9645,
111.35,14.7966,0.0,341.691,341.762,0.0,1.0,14.7966,
111.55,14.6718,0.0,343.687,343.75,0.0,1.0,14.6718,
111.75,14.719,0.0,345.687,345.75,0.0,1.0,14.719,
111.95,14.8333,0.0,347.683,347.75,0.0,1.0,14.8333,
112.15,14.9654,0.0,349.679,349.754,0.0,1.0,14.9654,
112.35,15.1105,0.0,351.675,351.75,0.0,1.0,15.1105,
112.55,15.2522,0.0,353.67,353.75,0.0,1.0,15.2522,
112.75,15.4006,0.0,355.67,355.745,0.0,1.0,15.4006,
112.95,15.5486,0.0,357.666,357.75,0.0,1.0,15.5486,
113.15,15.6967,0.0,359.662,359.75,0.0,1.0,15.6967,
113.35,15.8479,0.0,361.658,361.741,0.0,1.0,15.8479,
113.55,16.005,0.0,363.654,363.737,0.0,1.0,16.005,
113.75,16.152,0.0,365.654,365.729,0.0,1.0,16.152,
113.95,16.3062,0.0,367.65,367.729,0.0,1.0,16.3062,
114.15,16.4639,0.0,369.645,369.72,0.0,1.0,16.4639,
114.35,16.6209,0.0,371.641,371.716,0.0,1.0,16.6209,
114.55,16.862,0.0,373.641,373.712,0.0,1.0,16.862,
114.75,16.9992,0.0,375.637,375.704,0.0,1.0,16.9992,
114.95,17.1641,0.0,377.633,377.695,0.0,1.0,17.1641,
115.15,17.334,0.0,379.629,379.7,0.0,1.0,17.334,
115.35,17.277,0.0,378.366,378.895,0.0,1.0,17.277,
115.55,16.987,0.0,376.37,376.9,0.0,1.0,16.987,
115.75,16.8169,0.0,374.375,374.904,0.0,1.0,16.8169,
115.95,16.6491,0.0,372.379,372.908,0.0,1.0,16.6491,
116.15,16.4859,0.0,370.379,370.92,0.0,1.0,16.4859,
116.35,16.3227,0.0,368.383,368.925,0.0,1.0,16.3227,
116.55,16.1563,0.0,366.387,366.929,0.0,1.0,16.1563,
116.75,16.0036,0.0,364.391,364.933,0.0,1.0,16.0036,
116.95,15.8448,0.0,362.395,362.941,0.0,1.0,15.8448,
117.15,15.6947,0.0,360.395,360.95,0.0,1.0,15.6947,
117.35,15.5413,0.0,358.4,358.958,0.0,1.0,15.5413,
117.55,15.3832,0.0,356.404,356.958,0.0,1.0,15.3832,
117.75,15.2373,0.0,354.408,354.962,0.0,1.0,15.2373,
117.95,15.0861,0.0,352.408,352.958,0.0,1.0,15.0861,
118.15,14.9322,0.0,350.412,350.966,0.0,1.0,14.9322,
118.35,14.7869,0.0,348.416,348.966,0.0,1.0,14.7869,
118.55,14.643,0.0,346.42,346.97,0.0,1.0,14.643,
118.75,14.4973,0.0,344.425,344.966,0.0,1.0,14.4973,
118.95,14.3485,0.0,342.425,342.975,0.0,1.0,14.3485,
119.15,14.2103,0.0,340.429,340.979,0.0,1.0,14.2103,
119.35,14.0666,0.0,338.433,338.979,0.0,1.0,14.0666,
119.55,13.9269,0.0,336.437,336.987,0.0,1.0,13.9269,
119.75,13.7585,0.0,334.441,334.987,0.0,1.0,13.7585,
119.95,13.6385,0.0,332.441,333.0,0.0,1.0,13.6385,
120.15,13.5017,0.0,330.445,331.008,0.0,1.0,13.5017,
120.35,13.3707,0.0,328.45,329.016,0.0,1.0,13.3707,
120.55,13.2353,0.0,326.454,327.02,0.0,1.0,13.2353,
120.75,13.1082,0.0,324.454,325.025,0.0,1.0,13.1082,
120.95,12.9748,0.0,322.458,323.033,0.0,1.0,12.9748,
121.15,12.8505,0.0,320.462,321.041,0.0,1.0,12.8505,
121.35,12.7226,0.0,318.466,319.045,0.0,1.0,12.7226,
121.55,12.5992,0.0,316.47,317.05,0.0,1.0,12.5992,
121.75,12.4716,0.0,314.47,315.058,0.0,1.0,12.4716,
121.95,12.3523,0.0,312.475,313.066,0.0,1.0,12.3523,
122.15,12.231,0.0,310.479,311.066,0.0,1.0,12.231,
122.35,12.1137,0.0,308.483,309.066,0.0,1.0,12.1137,
122.55,11.9936,0.0,306.487,307.07,0.0,1.0,11.9936,
122.75,11.8744,0.0,304.487,305.075,0.0,1.0,11.8744,
122.95,11.7436,0.0,302.491,303.087,0.0,1.0,11.7436,
123.15,11.5413,0.0,300.495,301.087,0.0,1.0,11.5413,
123.35,10.9521,0.0,298.5,299.087,0.0,1.0,10.9521,
123.55,9.4539,0.0,296.5,297.087,0.0,1.0,9.4539,
123.75,9.592,0.0,294.504,295.091,0.0,1.0,9.592,
123.95,10.7299,0.0,292.508,293.091,0.0,1.0,10.7299,
124.15,10.8678,0.0,290.512,291.091,0.0,1.0,10.8678,
124.35,10.8361,0.0,288.516,289.091,0.0,1.0,10.8361,
124.55,10.7631,0.0,286.516,287.1,0.0,1.0,10.7631,
124.75,10.6801,0.0,284.52,285.1,0.0,1.0,10.6801,
124.95,10.5913,0.0,282.525,283.104,0.0,1.0,10.5913,
125.15,10.4988,0.0,280.529,281.108,0.0,1.0,10.4988,
125.35,10.3993,0.0,278.533,279.104,0.0,1.0,10.3993,
125.55,10.3046,0.0,276.533,277.112,0.0,1.0,10.3046,
125.75,10.2089,0.0,274.537,275.112,0.0,1.0,10.2089,
125.95,10.1135,0.0,272.541,273.116,0.0,1.0,10.1135,
126.15,10.0174,0.0,270.545,271.125,0.0,1.0,10.0174,
126.35,9.9134,0.0,268.545,269.129,0.0,1.0,9.9134,
126.55,9.817,0.0,266.55,267.129,0.0,1.0,9.817,
126.75,9.7234,0.0,264.554,265.141,0.0,1.0,9.7234,
126.95,9.626,0.0,262.558,263.145,0.0,1.0,9.626,
127.15,9.5322,0.0,260.562,261.154,0.0,1.0,9.5322,
127.35,9.4404,0.0,258.562,259.154,0.0,1.0,9.4404,
127.55,9.3378,0.0,256.566,257.166,0.0,1.0,9.3378,
127.75,9.2501,0.0,254.57,255.17,0.0,1.0,9.2501,
127.95,9.1607,0.0,252.575,253.179,0.0,1.0,9.1607,
128.15,9.0685,0.0,250.579,251.191,0.0,1.0,9.0685,
128.35,8.9755,0.0,248.579,249.195,0.0,1.0,8.9755,
128.55,8.8847,0.0,246.583,247.204,0.0,1.0,8.8847,
128.75,8.7961,0.0,244.587,245.204,0.0,1.0,8.7961,
128.95,8.6971,0.0,242.591,243.212,0.0,1.0,8.6971,
129.15,8.6143,0.0,240.595,241.212,0.0,1.0,8.6143,
129.35,8.5244,0.0,238.595,239.212,0.0,1.0,8.5244,
129.55,8.4256,0.0,236.6,237.212,0.0,1.0,8.4256,
129.75,8.3447,0.0,234.604,235.216,0.0,1.0,8.3447,
129.95,8.2577,0.0,232.608,233.22,0.0,1.0,8.2577,
130.15,8.1709,0.0,230.608,231.225,0.0,1.0,8.1709,
130.35,8.0772,0.0,228.612,229.22,0.0,1.0,8.0772,
130.55,7.9933,0.0,226.616,227.225,0.0,1.0,7.9933,
130.75,7.9088,0.0,224.62,225.233,0.0,1.0,7.9088,
130.95,7.8249,0.0,222.625,223.237,0.0,1.0,7.8249,
131.15,7.7409,0.0,220.625,221.245,0.0,1.0,7.7409,
131.35,7.6554,0.0,218.629,219.25,0.0,1.0,7.6554,
131.55,7.5753,0.0,216.633,217.258,0.0,1.0,7.5753,
131.75,7.4944,0.0,214.637,215.258,0.0,1.0,7.4944,
131.95,7.416,0.0,212.641,213.266,0.0,1.0,7.416,
132.15,7.3374,0.0,210.641,211.275,0.0,1.0,7.3374,
132.35,7.2573,0.0,208.645,209.275,0.0,1.0,7.2573,
132.55,7.1805,0.0,206.65,207.283,0.0,1.0,7.1805,
132.75,7.1048,0.0,204.654,205.287,0.0,1.0,7.1048,
132.95,7.0298,0.0,202.654,203.295,0.0,1.0,7.0298,
133.15,6.9577,0.0,200.658,201.304,0.0,1.0,6.9577,
133.35,6.8812,0.0,198.662,199.308,0.0,1.0,6.8812,
133.55,6.8098,0.0,196.666,197.32,0.0,1.0,6.8098,
133.75,6.7346,0.0,194.67,195.329,0.0,1.0,6.7346,
133.95,6.6592,0.0,192.67,193.333,0.0,1.0,6.6592,
134.15,6.5851,0.0,190.675,191.337,0.0,1.0,6.5851,
134.35,6.5155,0.0,188.679,189.341,0.0,1.0,6.5155,
134.55,6.4465,0.0,186.683,187.345,0.0,1.0,6.4465,
134.75,6.371,0.0,184.687,185.345,0.0,1.0,6.371,
134.95,6.3034,0.0,182.687,183.35,0.0,1.0,6.3034,
135.15,6.2352,0.0,180.691,181.354,0.0,1.0,6.2352,
135.35,6.1638,0.0,178.695,179.362,0.0,1.0,6.1638,
135.55,6.0966,0.0,176.7,177.366,0.0,1.0,6.0966,
135.75,6.0291,0.0,174.7,175.37,0.0,1.0,6.0291,
135.95,5.9611,0.0,172.704,173.379,0.0,1.0,5.9611,
136.15,5.8914,0.0,170.708,171.383,0.0,1.0,5.8914,
136.35,5.8244,0.0,168.712,169.387,0.0,1.0,5.8244,
136.55,5.7609,0.0,166.716,167.387,0.0,1.0,5.7609,
136.75,5.6938,0.0,164.716,165.391,0.0,1.0,5.6938,
136.95,5.6332,0.0,162.72,163.391,0.0,1.0,5.6332,
137.15,5.5666,0.0,160.725,161.4,0.0,1.0,5.5666,
137.35,5.5083,0.0,158.729,159.4,0.0,1.0,5.5083,
137.55,5.4463,0.0,156.733,157.412,0.0,1.0,5.4463,
137.75,5.3875,0.0,154.733,155.412,0.0,1.0,5.3875,
137.95,5.3304,0.0,152.737,153.42,0.0,1.0,5.3304,
138.15,5.2718,0.0,150.741,151.429,0.0,1.0,5.2718,
138.35,5.2141,0.0,148.745,149.437,0.0,1.0,5.2141,
138.55,5.1543,0.0,146.75,147.441,0.0,1.0,5.1543,
138.75,5.0941,0.0,144.75,145.445,0.0,1.0,5.0941,
138.95,5.0389,0.0,142.754,143.454,0.0,1.0,5.0389,
139.15,4.9775,0.0,140.758,141.466,0.0,1.0,4.9775,
139.35,4.9269,0.0,138.762,139.475,0.0,1.0,4.9269,
139.55,4.8709,0.0,136.762,137.483,0.0,1.0,4.8709,
139.75,4.814,0.0,134.766,135.483,0.0,1.0,4.814,
139.95,4.7549,0.0,132.77,133.483,0.0,1.0,4.7549,
140.15,4.6959,0.0,130.775,131.491,0.0,1.0,4.6959,
140.35,4.6406,0.0,128.779,129.495,0.0,1.0,4.6406,
140.55,4.5849,0.0,126.779,127.5,0.0,1.0,4.5849,
140.75,4.5111,0.0,124.783,125.5,0.0,1.0,4.5111,
140.95,4.4736,0.0,122.787,123.512,0.0,1.0,4.4736,
141.15,4.4166,0.0,120.791,121.516,0.0,1.0,4.4166,
141.35,4.3631,0.0,118.795,119.525,0.0,1.0,4.3631,
141.55,4.3102,0.0,116.795,117.525,0.0,1.0,4.3102,
141.75,4.2548,0.0,114.8,115.533,0.0,1.0,4.2548,
141.95,4.2013,0.0,112.804,113.541,0.0,1.0,4.2013,
142.15,4.1519,0.0,110.808,111.55,0.0,1.0,4.1519,
142.35,4.0999,0.0,108.808,109.554,0.0,1.0,4.0999,
142.55,4.0447,0.0,106.812,107.562,0.0,1.0,4.0447,
142.75,3.9975,0.0,104.816,105.575,0.0,1.0,3.9975,
142.95,3.946,0.0,102.82,103.583,0.0,1.0,3.946,
143.15,3.8916,0.0,100.825,101.595,0.0,1.0,3.8916,
143.35,3.8501,0.0,98.825,99.6,0.0,1.0,3.8501,
143.55,3.7985,0.0,96.829,97.608,0.0,1.0,3.7985,
143.75,3.7477,0.0,94.833,95.616,0.0,1.0,3.7477,
143.95,3.696,0.0,92.837,93.629,0.0,1.0,3.696,
144.15,3.6482,0.0,90.841,91.641,0.0,1.0,3.6482,
144.35,3.6034,0.0,88.841,89.645,0.0,1.0,3.6034,
144.55,3.5494,0.0,86.845,87.662,0.0,1.0,3.5494,
144.75,3.5051,0.0,84.85,85.675,0.0,1.0,3.5051,
144.95,3.4617,0.0,82.854,83.687,0.0,1.0,3.4617,
145.15,3.4152,0.0,80.854,81.695,0.0,1.0,3.4152,
145.35,3.3683,0.0,78.858,79.7,0.0,1.0,3.3683,
145.55,3.3233,0.0,76.862,77.704,0.0,1.0,3.3233,
145.75,3.2777,0.0,74.866,75.716,0.0,1.0,3.2777,
145.95,3.2322,0.0,72.87,73.716,0.0,1.0,3.2322,
146.15,3.1888,0.0,70.87,71.72,0.0,1.0,3.1888,
146.35,3.1471,0.0,68.875,69.733,0.0,1.0,3.1471,
146.55,3.1036,0.0,66.879,67.737,0.0,1.0,3.1036,
146.75,3.0588,0.0,64.883,65.75,0.0,1.0,3.0588,
146.95,3.0167,0.0,62.887,63.754,0.0,1.0,3.0167,
147.15,2.9732,0.0,60.887,61.77,0.0,1.0,2.9732,
147.35,2.9297,0.0,58.891,59.783,0.0,1.0,2.9297,
147.55,2.887,0.0,56.895,57.8,0.0,1.0,2.887,
147.75,2.8453,0.0,54.9,55.816,0.0,1.0,2.8453,
147.95,2.8041,0.0,52.904,53.825,0.0,1.0,2.8041,
148.15,2.7657,0.0,50.904,51.845,0.0,1.0,2.7657,
148.35,2.7224,0.0,48.908,49.862,0.0,1.0,2.7224,
148.55,2.6844,0.0,46.912,47.883,0.0,1.0,2.6844,
148.75,2.6474,0.0,44.916,45.904,0.0,1.0,2.6474,
148.95,2.6074,0.0,42.916,43.929,0.0,1.0,2.6074,
149.15,2.5738,0.0,40.92,41.954,0.0,1.0,2.5738,
149.35,2.538,0.0,38.925,39.979,0.0,1.0,2.538,
149.55,2.5041,0.0,36.929,38.008,0.0,1.0,2.5041,
149.75,2.4748,0.0,34.933,36.037,0.0,1.0,2.4748,
149.95,2.4528,0.0,32.933,34.066,0.0,1.0,2.4528,
150.15,2.4263,0.0,30.937,32.104,0.0,1.0,2.4263,
150.5975,1.9125,0.0,30.0,30.666,0.0,1.0,1.9125,
151.264,1.9455,0.0,30.0,30.658,0.0,1.0,1.9455,
151.931,1.9529,0.0,30.0,30.65,0.0,1.0,1.9529,
152.5975,1.9634,0.0,30.0,30.641,0.0,1.0,1.9634,
153.264,1.9705,0.0,30.0,30.641,0.0,1.0,1.9705,
153.931,1.9774,0.0,30.0,30.637,0.0,1.0,1.9774,
154.5975,1.9784,0.0,30.0,30.637,0.0,1.0,1.9784,
155.256,1.9631,0.0,30.033,30.637,0.0,1.0,1.9631,
155.456,1.5256,0.0,32.029,32.237,0.0,1.0,1.5256,
155.656,1.7512,0.0,34.025,34.216,0.0,1.0,1.7512,
155.856,1.8123,0.0,36.02,36.2,0.0,1.0,1.8123,
156.056,1.866,0.0,38.02,38.195,0.0,1.0,1.866,
156.256,1.9175,0.0,40.016,40.183,0.0,1.0,1.9175,
156.456,1.9699,0.0,42.012,42.17,0.0,1.0,1.9699,
156.656,2.0217,0.0,44.008,44.166,0.0,1.0,2.0217,
156.856,2.0698,0.0,46.004,46.158,0.0,1.0,2.0698,
157.056,2.1226,0.0,48.004,48.15,0.0,1.0,2.1226,
157.256,2.1741,0.0,50.0,50.145,0.0,1.0,2.1741,
157.456,2.2257,0.0,51.995,52.133,0.0,1.0,2.2257,
157.656,2.2746,0.0,53.991,54.129,0.0,1.0,2.2746,
157.856,2.3301,0.0,55.987,56.12,0.0,1.0,2.3301,
158.056,2.3787,0.0,57.987,58.12,0.0,1.0,2.3787,
158.256,2.4311,0.0,59.983,60.112,0.0,1.0,2.4311,
158.456,2.4839,0.0,61.979,62.108,0.0,1.0,2.4839,
158.656,2.5347,0.0,63.975,64.108,0.0,1.0,2.5347,
158.856,2.5884,0.0,65.975,66.108,0.0,1.0,2.5884,
159.056,2.6399,0.0,67.97,68.104,0.0,1.0,2.6399,
159.256,2.6887,0.0,69.966,70.104,0.0,1.0,2.6887,
159.456,2.7302,0.0,71.962,72.1,0.0,1.0,2.7302,
159.656,2.7889,0.0,73.958,74.1,0.0,1.0,2.7889,
159.856,2.8398,0.0,75.958,76.1,0.0,1.0,2.8398,
160.056,2.8933,0.0,77.954,78.1,0.0,1.0,2.8933,
160.256,2.9482,0.0,79.95,80.1,0.0,1.0,2.9482,
160.456,3.0052,0.0,81.945,82.104,0.0,1.0,3.0052,
160.656,3.0565,0.0,83.941,84.1,0.0,1.0,3.0565,
160.856,3.1099,0.0,85.941,86.091,0.0,1.0,3.1099,
161.056,3.1629,0.0,87.937,88.079,0.0,1.0,3.1629,
161.256,3.2222,0.0,89.933,90.07,0.0,1.0,3.2222,
161.456,3.2813,0.0,91.929,92.07,0.0,1.0,3.2813,
161.656,3.3367,0.0,93.929,94.058,0.0,1.0,3.3367,
161.856,3.3871,0.0,95.925,96.058,0.0,1.0,3.3871,
162.056,3.4485,0.0,97.92,98.05,0.0,1.0,3.4485,
162.256,3.5051,0.0,99.916,100.045,0.0,1.0,3.5051,
162.456,3.558,0.0,101.912,102.037,0.0,1.0,3.558,
162.656,3.6114,0.0,103.912,104.033,0.0,1.0,3.6114,
162.856,3.6742,0.0,105.908,106.025,0.0,1.0,3.6742,
163.056,3.735,0.0,107.904,108.016,0.0,1.0,3.735,
163.256,3.7947,0.0,109.9,110.02,0.0,1.0,3.7947,
163.456,3.8437,0.0,111.895,112.012,0.0,1.0,3.8437,
163.656,3.9009,0.0,113.895,114.008,0.0,1.0,3.9009,
163.856,3.9626,0.0,115.891,116.0,0.0,1.0,3.9626,
164.056,4.0221,0.0,117.887,118.0,0.0,1.0,4.0221,
164.256,4.0861,0.0,119.883,119.995,0.0,1.0,4.0861,
164.456,4.1514,0.0,121.883,121.995,0.0,1.0,4.1514,
164.656,4.2054,0.0,123.879,123.991,0.0,1.0,4.2054,
164.856,4.2625,0.0,125.875,125.987,0.0,1.0,4.2625,
165.056,4.3277,0.0,127.87,127.983,0.0,1.0,4.3277,
165.256,4.3846,0.0,129.866,129.983,0.0,1.0,4.3846,
165.456,4.4415,0.0,131.866,131.979,0.0,1.0,4.4415,
165.656,4.5092,0.0,133.862,133.975,0.0,1.0,4.5092,
165.856,4.5741,0.0,135.858,135.97,0.0,1.0,4.5741,
166.056,4.6345,0.0,137.854,137.975,0.0,1.0,4.6345,
166.256,4.6999,0.0,139.85,139.975,0.0,1.0,4.6999,
166.456,4.7671,0.0,141.85,141.966,0.0,1.0,4.7671,
166.656,4.8292,0.0,143.845,143.962,0.0,1.0,4.8292,
166.856,4.9013,0.0,145.841,145.954,0.0,1.0,4.9013,
167.056,4.9731,0.0,147.837,147.945,0.0,1.0,4.9731,
167.256,5.0371,0.0,149.833,149.941,0.0,1.0,5.0371,
167.456,5.1064,0.0,151.833,151.941,0.0,1.0,5.1064,
167.656,5.1574,0.0,153.829,153.929,0.0,1.0,5.1574,
167.856,5.2376,0.0,155.825,155.929,0.0,1.0,5.2376,
168.056,5.3026,0.0,157.82,157.929,0.0,1.0,5.3026,
168.256,5.3707,0.0,159.82,159.925,0.0,1.0,5.3707,
168.456,5.4399,0.0,161.816,161.92,0.0,1.0,5.4399,
168.656,5.5047,0.0,163.812,163.92,0.0,1.0,5.5047,
168.856,5.5733,0.0,165.808,165.916,0.0,1.0,5.5733,
169.056,5.6463,0.0,167.804,167.908,0.0,1.0,5.6463,
169.256,5.7153,0.0,169.804,169.912,0.0,1.0,5.7153,
169.456,5.7874,0.0,171.8,171.904,0.0,1.0,5.7874,
169.656,5.8588,0.0,173.795,173.908,0.0,1.0,5.8588,
169.856,5.9279,0.0,175.791,175.904,0.0,1.0,5.9279,
170.056,6.0035,0.0,177.787,177.9,0.0,1.0,6.0035,
170.256,6.0755,0.0,179.787,179.891,0.0,1.0,6.0755,
170.456,6.1336,0.0,181.783,181.887,0.0,1.0,6.1336,
170.656,6.2142,0.0,183.779,183.883,0.0,1.0,6.2142,
170.856,6.291,0.0,185.775,185.887,0.0,1.0,6.291,
171.056,6.3561,0.0,187.775,187.883,0.0,1.0,6.3561,
171.256,6.4348,0.0,189.77,189.883,0.0,1.0,6.4348,
171.456,6.5057,0.0,191.766,191.879,0.0,1.0,6.5057,
171.656,6.588,0.0,193.762,193.879,0.0,1.0,6.588,
171.856,6.6666,0.0,195.758,195.875,0.0,1.0,6.6666,
172.056,6.7365,0.0,197.758,197.866,0.0,1.0,6.7365,
172.256,6.812,0.0,199.754,199.858,0.0,1.0,6.812,
172.456,6.8896,0.0,201.75,201.854,0.0,1.0,6.8896,
172.656,6.9727,0.0,203.745,203.854,0.0,1.0,6.9727,
172.856,7.0451,0.0,205.741,205.845,0.0,1.0,7.0451,
173.056,7.1256,0.0,207.741,207.841,0.0,1.0,7.1256,
173.256,7.2058,0.0,209.737,209.837,0.0,1.0,7.2058,
173.456,7.2868,0.0,211.733,211.829,0.0,1.0,7.2868,
173.656,7.3691,0.0,213.729,213.82,0.0,1.0,7.3691,
173.856,7.4538,0.0,215.729,215.82,0.0,1.0,7.4538,
174.056,7.5367,0.0,217.725,217.808,0.0,1.0,7.5367,
174.256,7.6226,0.0,219.72,219.804,0.0,1.0,7.6226,
174.456,7.7118,0.0,221.716,221.804,0.0,1.0,7.7118,
174.656,7.7947,0.0,223.712,223.8,0.0,1.0,7.7947,
174.856,7.883,0.0,225.712,225.795,0.0,1.0,7.883,
175.056,7.9698,0.0,227.708,227.795,0.0,1.0,7.9698,
175.256,8.0549,0.0,229.704,229.791,0.0,1.0,8.0549,
175.456,8.1434,0.0,231.7,231.795,0.0,1.0,8.1434,
175.656,8.2301,0.0,233.695,233.795,0.0,1.0,8.2301,
175.856,8.3181,0.0,235.695,235.787,0.0,1.0,8.3181,
176.056,8.4099,0.0,237.691,237.787,0.0,1.0,8.4099,
176.256,8.4959,0.0,239.687,239.787,0.0,1.0,8.4959,
176.456,8.5873,0.0,241.683,241.787,0.0,1.0,8.5873,
176.656,8.68,0.0,243.679,243.787,0.0,1.0,8.68,
176.856,8.7732,0.0,245.679,245.787,0.0,1.0,8.7732,
177.056,8.8608,0.0,247.675,247.779,0.0,1.0,8.8608,
177.256,8.9598,0.0,249.67,249.779,0.0,1.0,8.9598,
177.456,9.0547,0.0,251.666,251.766,0.0,1.0,9.0547,
177.656,9.1573,0.0,253.666,253.762,0.0,1.0,9.1573,
177.856,9.2504,0.0,255.662,255.75,0.0,1.0,9.2504,
178.056,9.3521,0.0,257.658,257.741,0.0,1.0,9.3521,
178.256,9.4565,0.0,259.654,259.737,0.0,1.0,9.4565,
178.456,9.5568,0.0,261.65,261.729,0.0,1.0,9.5568,
178.656,9.6571,0.0,263.65,263.725,0.0,1.0,9.6571,
178.856,9.7592,0.0,265.645,265.72,0.0,1.0,9.7592,
179.056,9.8653,0.0,267.641,267.716,0.0,1.0,9.8653,
179.256,9.9699,0.0,269.637,269.716,0.0,1.0,9.9699,
179.456,10.0746,0.0,271.633,271.712,0.0,1.0,10.0746,
179.656,10.1797,0.0,273.633,273.704,0.0,1.0,10.1797,
179.856,10.2868,0.0,275.629,275.7,0.0,1.0,10.2868,
180.056,10.4031,0.0,277.625,277.691,0.0,1.0,10.4031,
180.256,10.5063,0.0,279.62,279.695,0.0,1.0,10.5063,
180.456,10.6185,0.0,281.62,281.695,0.0,1.0,10.6185,
180.656,10.7297,0.0,283.616,283.691,0.0,1.0,10.7297,
180.856,10.8418,0.0,285.612,285.679,0.0,1.0,10.8418,
181.056,10.9587,0.0,287.608,287.683,0.0,1.0,10.9587,
181.256,11.0744,0.0,289.604,289.683,0.0,1.0,11.0744,
181.456,11.1865,0.0,291.604,291.683,0.0,1.0,11.1865,
181.656,11.3073,0.0,293.6,293.683,0.0,1.0,11.3073,
181.856,11.4278,0.0,295.595,295.675,0.0,1.0,11.4278,
182.056,11.5448,0.0,297.591,297.675,0.0,1.0,11.5448,
182.256,11.6636,0.0,299.587,299.675,0.0,1.0,11.6636,
182.456,11.7765,0.0,301.587,301.679,0.0,1.0,11.7765,
182.656,11.889,0.0,303.583,303.675,0.0,1.0,11.889,
182.856,12.0106,0.0,305.579,305.67,0.0,1.0,12.0106,
183.056,12.1332,0.0,307.575,307.67,0.0,1.0,12.1332,
183.256,12.2537,0.0,309.575,309.666,0.0,1.0,12.2537,
183.456,12.3746,0.0,311.57,311.666,0.0,1.0,12.3746,
183.656,12.5058,0.0,313.566,313.662,0.0,1.0,12.5058,
183.856,12.6325,0.0,315.562,315.65,0.0,1.0,12.6325,
184.056,12.7638,0.0,317.558,317.654,0.0,1.0,12.7638,
184.256,12.9002,0.0,319.558,319.645,0.0,1.0,12.9002,
184.456,13.0416,0.0,321.554,321.641,0.0,1.0,13.0416,
184.656,13.1853,0.0,323.55,323.637,0.0,1.0,13.1853,
184.856,13.3372,0.0,325.545,325.629,0.0,1.0,13.3372,
185.056,13.4955,0.0,327.541,327.625,0.0,1.0,13.4955,
185.256,13.6699,0.0,329.541,329.62,0.0,1.0,13.6699,
185.456,13.8564,0.0,331.537,331.616,0.0,1.0,13.8564,
185.656,14.0683,0.0,333.533,333.608,0.0,1.0,14.0683,
185.856,14.3512,0.0,335.529,335.604,0.0,1.0,14.3512,
186.056,14.6119,0.0,337.529,337.6,0.0,1.0,14.6119,
186.256,14.7709,0.0,339.525,339.604,0.0,1.0,14.7709,
186.456,14.6175,0.0,341.52,341.595,0.0,1.0,14.6175,
186.656,14.4805,0.0,343.516,343.6,0.0,1.0,14.4805,
186.856,14.5313,0.0,345.512,345.591,0.0,1.0,14.5313,
187.056,14.6425,0.0,347.512,347.595,0.0,1.0,14.6425,
187.256,14.7734,0.0,349.508,349.595,0.0,1.0,14.7734,
187.456,14.9193,0.0,351.504,351.595,0.0,1.0,14.9193,
187.656,15.0644,0.0,353.5,353.591,0.0,1.0,15.0644,
187.856,15.2131,0.0,355.495,355.591,0.0,1.0,15.2131,
188.056,15.3627,0.0,357.495,357.591,0.0,1.0,15.3627,
188.256,15.5174,0.0,359.491,359.591,0.0,1.0,15.5174,
188.456,15.6721,0.0,361.487,361.583,0.0,1.0,15.6721,
188.656,15.8259,0.0,363.483,363.579,0.0,1.0,15.8259,
188.856,15.9876,0.0,365.479,365.579,0.0,1.0,15.9876,
189.056,16.1475,0.0,367.479,367.566,0.0,1.0,16.1475,
189.256,16.3145,0.0,369.475,369.562,0.0,1.0,16.3145,
189.456,16.4765,0.0,371.47,371.558,0.0,1.0,16.4765,
189.656,16.6504,0.0,373.466,373.554,0.0,1.0,16.6504,
189.856,16.8184,0.0,375.466,375.55,0.0,1.0,16.8184,
190.056,16.9846,0.0,377.462,377.541,0.0,1.0,16.9846,
190.256,17.1516,0.0,379.458,379.541,0.0,1.0,17.1516,
190.306,17.1955,0.0,379.958,380.041,0.0,1.0,17.1955,