File: Chapter4_Crystallinity-measurement/data/DSC/501023_1.csv
Time,Unsubtracted Heat Flow,Baseline Heat Flow,Program Temperature,Sample Temperature,Approx. Gas Flow,Heat Flow Calibration,Uncorrected Heat Flow,
0.0,0.1077,0.0,30.0,45.916,0.0,1.0,0.1077,
0.666667,0.709,0.0,30.0,45.22,0.0,1.0,0.709,
1.333333,0.6966,0.0,30.0,44.8,0.0,1.0,0.6966,
2.0,0.6899,0.0,30.0,44.55,0.0,1.0,0.6899,
2.666667,0.685,0.0,30.0,44.395,0.0,1.0,0.685,
3.333333,0.6821,0.0,30.0,44.308,0.0,1.0,0.6821,
4.0,0.6801,0.0,30.0,44.258,0.0,1.0,0.6801,
4.666667,0.6789,0.0,30.0,44.22,0.0,1.0,0.6789,
5.333333,0.7763,0.0,33.254,44.204,0.0,1.0,0.7763,
6.0,0.976,0.0,39.912,44.191,0.0,1.0,0.976,
6.666667,0.4588,0.0,46.566,47.741,0.0,1.0,0.4588,
7.333333,0.6761,0.0,53.22,54.316,0.0,1.0,0.6761,
8.0,0.8596,0.0,59.879,60.908,0.0,1.0,0.8596,
8.666667,1.044,0.0,66.533,67.525,0.0,1.0,1.044,
9.333333,1.2291,0.0,73.191,74.15,0.0,1.0,1.2291,
10.0,1.4108,0.0,79.845,80.779,0.0,1.0,1.4108,
10.6667,1.5975,0.0,86.5,87.416,0.0,1.0,1.5975,
11.3333,1.7897,0.0,93.158,94.037,0.0,1.0,1.7897,
12.0,1.9889,0.0,99.812,100.666,0.0,1.0,1.9889,
12.6667,2.1862,0.0,106.466,107.295,0.0,1.0,2.1862,
13.3333,2.3999,0.0,113.125,113.929,0.0,1.0,2.3999,
14.0,2.6109,0.0,119.779,120.566,0.0,1.0,2.6109,
14.6667,2.818,0.0,126.437,127.208,0.0,1.0,2.818,
15.3333,3.0403,0.0,133.091,133.858,0.0,1.0,3.0403,
16.0,3.2644,0.0,139.745,140.512,0.0,1.0,3.2644,
16.6667,3.4914,0.0,146.404,147.15,0.0,1.0,3.4914,
17.3333,3.7217,0.0,153.058,153.787,0.0,1.0,3.7217,
18.0,3.9443,0.0,159.712,160.437,0.0,1.0,3.9443,
18.6667,4.1926,0.0,166.37,167.083,0.0,1.0,4.1926,
19.3333,4.4373,0.0,173.025,173.733,0.0,1.0,4.4373,
20.0,4.6871,0.0,179.683,180.383,0.0,1.0,4.6871,
20.6667,4.961,0.0,186.337,187.037,0.0,1.0,4.961,
21.3333,5.2341,0.0,192.991,193.687,0.0,1.0,5.2341,
22.0,5.5185,0.0,199.65,200.329,0.0,1.0,5.5185,
22.6667,5.8136,0.0,206.304,206.975,0.0,1.0,5.8136,
23.3333,6.1179,0.0,212.958,213.625,0.0,1.0,6.1179,
24.0,6.4368,0.0,219.616,220.266,0.0,1.0,6.4368,
24.6667,6.7575,0.0,226.27,226.912,0.0,1.0,6.7575,
25.3333,7.0849,0.0,232.929,233.57,0.0,1.0,7.0849,
26.0,7.4226,0.0,239.583,240.233,0.0,1.0,7.4226,
26.6667,7.7627,0.0,246.237,246.891,0.0,1.0,7.7627,
27.3333,8.1101,0.0,252.895,253.537,0.0,1.0,8.1101,
28.0,8.4698,0.0,259.55,260.179,0.0,1.0,8.4698,
28.6667,8.8381,0.0,266.204,266.833,0.0,1.0,8.8381,
29.3333,9.2191,0.0,272.862,273.479,0.0,1.0,9.2191,
30.0,9.6172,0.0,279.516,280.129,0.0,1.0,9.6172,
30.6667,10.0234,0.0,286.175,286.779,0.0,1.0,10.0234,
31.3333,10.443,0.0,292.829,293.441,0.0,1.0,10.443,
32.0,10.8761,0.0,299.483,300.104,0.0,1.0,10.8761,
32.6667,11.3333,0.0,306.141,306.758,0.0,1.0,11.3333,
33.3333,11.8119,0.0,312.795,313.42,0.0,1.0,11.8119,
34.0,12.3251,0.0,319.45,320.07,0.0,1.0,12.3251,
34.6667,12.8866,0.0,326.108,326.716,0.0,1.0,12.8866,
35.3333,13.5148,0.0,332.762,333.362,0.0,1.0,13.5148,
36.0,14.1037,0.0,339.42,340.016,0.0,1.0,14.1037,
36.6667,14.252,0.0,346.075,346.675,0.0,1.0,14.252,
37.3333,14.7284,0.0,352.729,353.333,0.0,1.0,14.7284,
38.0,15.2505,0.0,359.387,360.004,0.0,1.0,15.2505,
38.6667,15.8019,0.0,366.041,366.65,0.0,1.0,15.8019,
39.3333,16.3666,0.0,372.695,373.291,0.0,1.0,16.3666,
40.0,16.9479,0.0,379.354,379.95,0.0,1.0,16.9479,
40.2443,17.0075,0.0,378.191,379.258,0.0,1.0,17.0075,
40.4443,16.7289,0.0,376.195,377.266,0.0,1.0,16.7289,
40.6443,16.5288,0.0,374.2,375.266,0.0,1.0,16.5288,
40.8443,16.3304,0.0,372.204,373.279,0.0,1.0,16.3304,
41.0443,16.1383,0.0,370.204,371.283,0.0,1.0,16.1383,
41.2443,15.9509,0.0,368.208,369.291,0.0,1.0,15.9509,
41.4443,15.7653,0.0,366.212,367.3,0.0,1.0,15.7653,
41.6443,15.5837,0.0,364.216,365.304,0.0,1.0,15.5837,
41.8443,15.4038,0.0,362.22,363.316,0.0,1.0,15.4038,
42.0443,15.2259,0.0,360.22,361.329,0.0,1.0,15.2259,
42.2443,15.0493,0.0,358.225,359.333,0.0,1.0,15.0493,
42.4443,14.8735,0.0,356.229,357.333,0.0,1.0,14.8735,
42.6443,14.7005,0.0,354.233,355.337,0.0,1.0,14.7005,
42.8443,14.5303,0.0,352.237,353.341,0.0,1.0,14.5303,
43.0443,14.3625,0.0,350.237,351.345,0.0,1.0,14.3625,
43.2443,14.196,0.0,348.241,349.35,0.0,1.0,14.196,
43.4443,14.0298,0.0,346.245,347.35,0.0,1.0,14.0298,
43.6443,13.8673,0.0,344.25,345.354,0.0,1.0,13.8673,
43.8443,13.7067,0.0,342.254,343.358,0.0,1.0,13.7067,
44.0443,13.5457,0.0,340.254,341.366,0.0,1.0,13.5457,
44.2443,13.3904,0.0,338.258,339.37,0.0,1.0,13.3904,
44.4443,13.2336,0.0,336.262,337.375,0.0,1.0,13.2336,
44.6443,13.0796,0.0,334.266,335.375,0.0,1.0,13.0796,
44.8443,12.926,0.0,332.266,333.383,0.0,1.0,12.926,
45.0443,12.7744,0.0,330.27,331.395,0.0,1.0,12.7744,
45.2443,12.6287,0.0,328.275,329.4,0.0,1.0,12.6287,
45.4443,12.4795,0.0,326.279,327.408,0.0,1.0,12.4795,
45.6443,12.334,0.0,324.283,325.412,0.0,1.0,12.334,
45.8443,12.1912,0.0,322.283,323.42,0.0,1.0,12.1912,
46.0443,12.0485,0.0,320.287,321.433,0.0,1.0,12.0485,
46.2443,11.907,0.0,318.291,319.437,0.0,1.0,11.907,
46.4443,11.7675,0.0,316.295,317.445,0.0,1.0,11.7675,
46.6443,11.63,0.0,314.3,315.458,0.0,1.0,11.63,
46.8443,11.4926,0.0,312.3,313.458,0.0,1.0,11.4926,
47.0443,11.3554,0.0,310.304,311.466,0.0,1.0,11.3554,
47.2443,11.221,0.0,308.308,309.466,0.0,1.0,11.221,
47.4443,11.0888,0.0,306.312,307.479,0.0,1.0,11.0888,
47.6443,10.9531,0.0,304.312,305.483,0.0,1.0,10.9531,
47.8443,10.8063,0.0,302.316,303.491,0.0,1.0,10.8063,
48.0443,10.5638,0.0,300.32,301.491,0.0,1.0,10.5638,
48.2443,9.8812,0.0,298.325,299.5,0.0,1.0,9.8812,
48.4443,8.6308,0.0,296.329,297.495,0.0,1.0,8.6308,
48.6443,9.3356,0.0,294.329,295.504,0.0,1.0,9.3356,
48.8443,9.9176,0.0,292.333,293.504,0.0,1.0,9.9176,
49.0443,9.9097,0.0,290.337,291.512,0.0,1.0,9.9097,
49.2443,9.8331,0.0,288.341,289.516,0.0,1.0,9.8331,
49.4443,9.7343,0.0,286.345,287.512,0.0,1.0,9.7343,
49.6443,9.6308,0.0,284.345,285.52,0.0,1.0,9.6308,
49.8443,9.5229,0.0,282.35,283.52,0.0,1.0,9.5229,
50.0443,9.413,0.0,280.354,281.537,0.0,1.0,9.413,
50.2443,9.3029,0.0,278.358,279.541,0.0,1.0,9.3029,
50.4443,9.1937,0.0,276.362,277.545,0.0,1.0,9.1937,
50.6443,9.0837,0.0,274.362,275.55,0.0,1.0,9.0837,
50.8443,8.9734,0.0,272.366,273.558,0.0,1.0,8.9734,
51.0443,8.8644,0.0,270.37,271.566,0.0,1.0,8.8644,
51.2443,8.7557,0.0,268.375,269.566,0.0,1.0,8.7557,
51.4443,8.6477,0.0,266.375,267.57,0.0,1.0,8.6477,
51.6443,8.5398,0.0,264.379,265.583,0.0,1.0,8.5398,
51.8443,8.4334,0.0,262.383,263.591,0.0,1.0,8.4334,
52.0443,8.3284,0.0,260.387,261.595,0.0,1.0,8.3284,
52.2443,8.2242,0.0,258.391,259.612,0.0,1.0,8.2242,
52.4443,8.1201,0.0,256.391,257.612,0.0,1.0,8.1201,
52.6443,8.0169,0.0,254.395,255.633,0.0,1.0,8.0169,
52.8443,7.9147,0.0,252.4,253.637,0.0,1.0,7.9147,
53.0443,7.814,0.0,250.404,251.65,0.0,1.0,7.814,
53.2443,7.7111,0.0,248.408,249.662,0.0,1.0,7.7111,
53.4443,7.6122,0.0,246.408,247.666,0.0,1.0,7.6122,
53.6443,7.5104,0.0,244.412,245.67,0.0,1.0,7.5104,
53.8443,7.4127,0.0,242.416,243.675,0.0,1.0,7.4127,
54.0443,7.3163,0.0,240.42,241.683,0.0,1.0,7.3163,
54.2443,7.2182,0.0,238.42,239.683,0.0,1.0,7.2182,
54.4443,7.12,0.0,236.425,237.683,0.0,1.0,7.12,
54.6443,7.0253,0.0,234.429,235.695,0.0,1.0,7.0253,
54.8443,6.9303,0.0,232.433,233.7,0.0,1.0,6.9303,
55.0443,6.8377,0.0,230.437,231.704,0.0,1.0,6.8377,
55.2443,6.7419,0.0,228.437,229.704,0.0,1.0,6.7419,
55.4443,6.6488,0.0,226.441,227.712,0.0,1.0,6.6488,
55.6443,6.5585,0.0,224.445,225.72,0.0,1.0,6.5585,
55.8443,6.4662,0.0,222.45,223.729,0.0,1.0,6.4662,
56.0443,6.3756,0.0,220.454,221.737,0.0,1.0,6.3756,
56.2443,6.2882,0.0,218.454,219.741,0.0,1.0,6.2882,
56.4443,6.1989,0.0,216.458,217.754,0.0,1.0,6.1989,
56.6443,6.1113,0.0,214.462,215.758,0.0,1.0,6.1113,
56.8443,6.0266,0.0,212.466,213.766,0.0,1.0,6.0266,
57.0443,5.9395,0.0,210.466,211.775,0.0,1.0,5.9395,
57.2443,5.8544,0.0,208.47,209.779,0.0,1.0,5.8544,
57.4443,5.7693,0.0,206.475,207.791,0.0,1.0,5.7693,
57.6443,5.6856,0.0,204.479,205.8,0.0,1.0,5.6856,
57.8443,5.603,0.0,202.483,203.816,0.0,1.0,5.603,
58.0443,5.5222,0.0,200.483,201.82,0.0,1.0,5.5222,
58.2443,5.4408,0.0,198.487,199.837,0.0,1.0,5.4408,
58.4443,5.3614,0.0,196.491,197.845,0.0,1.0,5.3614,
58.6443,5.2814,0.0,194.495,195.858,0.0,1.0,5.2814,
58.8443,5.2031,0.0,192.5,193.866,0.0,1.0,5.2031,
59.0443,5.1266,0.0,190.5,191.866,0.0,1.0,5.1266,
59.2443,5.0507,0.0,188.504,189.883,0.0,1.0,5.0507,
59.4443,4.9716,0.0,186.508,187.887,0.0,1.0,4.9716,
59.6443,4.8985,0.0,184.512,185.895,0.0,1.0,4.8985,
59.8443,4.8231,0.0,182.516,183.891,0.0,1.0,4.8231,
60.0443,4.7486,0.0,180.516,181.904,0.0,1.0,4.7486,
60.2443,4.6752,0.0,178.52,179.912,0.0,1.0,4.6752,
60.4443,4.6019,0.0,176.525,177.925,0.0,1.0,4.6019,
60.6443,4.5293,0.0,174.529,175.933,0.0,1.0,4.5293,
60.8443,4.4579,0.0,172.529,173.941,0.0,1.0,4.4579,
61.0443,4.3864,0.0,170.533,171.95,0.0,1.0,4.3864,
61.2443,4.3164,0.0,168.537,169.958,0.0,1.0,4.3164,
61.4443,4.246,0.0,166.541,167.97,0.0,1.0,4.246,
61.6443,4.176,0.0,164.545,165.975,0.0,1.0,4.176,
61.8443,4.1068,0.0,162.545,163.983,0.0,1.0,4.1068,
62.0443,4.041,0.0,160.55,161.991,0.0,1.0,4.041,
62.2443,3.9724,0.0,158.554,160.004,0.0,1.0,3.9724,
62.4443,3.9067,0.0,156.558,158.008,0.0,1.0,3.9067,
62.6443,3.8408,0.0,154.562,156.025,0.0,1.0,3.8408,
62.8443,3.7775,0.0,152.562,154.033,0.0,1.0,3.7775,
63.0443,3.7141,0.0,150.566,152.045,0.0,1.0,3.7141,
63.2443,3.6528,0.0,148.57,150.058,0.0,1.0,3.6528,
63.4443,3.5898,0.0,146.575,148.066,0.0,1.0,3.5898,
63.6443,3.5306,0.0,144.575,146.079,0.0,1.0,3.5306,
63.8443,3.4679,0.0,142.579,144.095,0.0,1.0,3.4679,
64.0443,3.4073,0.0,140.583,142.112,0.0,1.0,3.4073,
64.2443,3.3485,0.0,138.587,140.125,0.0,1.0,3.3485,
64.4443,3.2904,0.0,136.591,138.141,0.0,1.0,3.2904,
64.6443,3.2311,0.0,134.591,136.145,0.0,1.0,3.2311,
64.8443,3.1723,0.0,132.595,134.154,0.0,1.0,3.1723,
65.0443,3.1156,0.0,130.6,132.166,0.0,1.0,3.1156,
65.2443,3.0572,0.0,128.604,130.175,0.0,1.0,3.0572,
65.4443,3.0012,0.0,126.608,128.187,0.0,1.0,3.0012,
65.6443,2.9444,0.0,124.608,126.195,0.0,1.0,2.9444,
65.8443,2.8867,0.0,122.612,124.212,0.0,1.0,2.8867,
66.0443,2.8337,0.0,120.616,122.229,0.0,1.0,2.8337,
66.2443,2.7786,0.0,118.62,120.245,0.0,1.0,2.7786,
66.4443,2.724,0.0,116.62,118.258,0.0,1.0,2.724,
66.6443,2.6717,0.0,114.625,116.266,0.0,1.0,2.6717,
66.8443,2.6172,0.0,112.629,114.291,0.0,1.0,2.6172,
67.0443,2.5668,0.0,110.633,112.304,0.0,1.0,2.5668,
67.2443,2.5156,0.0,108.637,110.325,0.0,1.0,2.5156,
67.4443,2.4662,0.0,106.637,108.337,0.0,1.0,2.4662,
67.6443,2.4173,0.0,104.641,106.362,0.0,1.0,2.4173,
67.8443,2.3717,0.0,102.645,104.387,0.0,1.0,2.3717,
68.0443,2.3261,0.0,100.65,102.4,0.0,1.0,2.3261,
68.2443,2.2793,0.0,98.654,100.42,0.0,1.0,2.2793,
68.4443,2.2361,0.0,96.654,98.441,0.0,1.0,2.2361,
68.6443,2.1916,0.0,94.658,96.466,0.0,1.0,2.1916,
68.8443,2.1449,0.0,92.662,94.495,0.0,1.0,2.1449,
69.0443,2.106,0.0,90.666,92.516,0.0,1.0,2.106,
69.2443,2.0658,0.0,88.67,90.537,0.0,1.0,2.0658,
69.4443,2.0258,0.0,86.67,88.57,0.0,1.0,2.0258,
69.6443,1.9909,0.0,84.675,86.604,0.0,1.0,1.9909,
69.8443,1.9587,0.0,82.679,84.637,0.0,1.0,1.9587,
70.0443,1.9272,0.0,80.683,82.662,0.0,1.0,1.9272,
70.2443,1.8983,0.0,78.683,80.691,0.0,1.0,1.8983,
70.4443,1.873,0.0,76.687,78.72,0.0,1.0,1.873,
70.6443,1.8477,0.0,74.691,76.758,0.0,1.0,1.8477,
70.8443,1.8302,0.0,72.695,74.787,0.0,1.0,1.8302,
71.0443,1.8194,0.0,70.7,72.829,0.0,1.0,1.8194,
71.2443,1.8147,0.0,68.7,70.87,0.0,1.0,1.8147,
71.4443,1.8226,0.0,66.704,68.92,0.0,1.0,1.8226,
71.6443,1.8432,0.0,64.708,66.975,0.0,1.0,1.8432,
71.8443,1.8863,0.0,62.712,65.029,0.0,1.0,1.8863,
72.0443,1.9602,0.0,60.716,63.095,0.0,1.0,1.9602,
72.2443,1.6461,0.0,58.716,61.233,0.0,1.0,1.6461,
72.4443,1.4496,0.0,56.72,59.625,0.0,1.0,1.4496,
72.6443,1.3432,0.0,54.725,58.25,0.0,1.0,1.3432,
72.8443,1.2535,0.0,52.729,57.07,0.0,1.0,1.2535,
73.0443,1.1702,0.0,50.729,56.066,0.0,1.0,1.1702,
73.2443,1.0894,0.0,48.733,55.2,0.0,1.0,1.0894,
73.4443,1.0134,0.0,46.737,54.466,0.0,1.0,1.0134,
73.6443,0.9388,0.0,44.741,53.833,0.0,1.0,0.9388,
73.8443,0.8663,0.0,42.745,53.295,0.0,1.0,0.8663,
74.0443,0.7953,0.0,40.745,52.829,0.0,1.0,0.7953,
74.2443,0.7264,0.0,38.75,52.429,0.0,1.0,0.7264,
74.4443,0.6591,0.0,36.754,52.087,0.0,1.0,0.6591,
74.6443,0.5924,0.0,34.758,51.795,0.0,1.0,0.5924,
74.8443,0.5268,0.0,32.762,51.545,0.0,1.0,0.5268,
75.0443,0.4613,0.0,30.762,51.329,0.0,1.0,0.4613,
75.5325,0.4287,0.0,30.0,50.925,0.0,1.0,0.4287,
76.1992,0.4214,0.0,30.0,50.558,0.0,1.0,0.4214,
76.8658,0.4174,0.0,30.0,50.333,0.0,1.0,0.4174,
77.5325,0.4155,0.0,30.0,50.195,0.0,1.0,0.4155,
78.1992,0.4144,0.0,30.0,50.112,0.0,1.0,0.4144,
78.8658,0.4141,0.0,30.0,50.05,0.0,1.0,0.4141,
79.5325,0.4138,0.0,30.0,50.004,0.0,1.0,0.4138,
80.1502,0.4206,0.0,30.208,49.975,0.0,1.0,0.4206,
80.3502,0.4806,0.0,32.204,49.966,0.0,1.0,0.4806,
80.5502,0.5405,0.0,34.2,49.962,0.0,1.0,0.5405,
80.7502,0.6011,0.0,36.195,49.95,0.0,1.0,0.6011,
80.9502,0.6612,0.0,38.191,49.945,0.0,1.0,0.6612,
81.1502,0.7215,0.0,40.191,49.941,0.0,1.0,0.7215,
81.3502,0.7818,0.0,42.187,49.933,0.0,1.0,0.7818,
81.5502,0.842,0.0,44.183,49.929,0.0,1.0,0.842,
81.7502,0.9023,0.0,46.179,49.916,0.0,1.0,0.9023,
81.9502,-0.6068,0.0,48.175,49.929,0.0,1.0,-0.6068,
82.1502,-0.2185,0.0,50.175,51.512,0.0,1.0,-0.2185,
82.3502,0.3309,0.0,52.17,53.466,0.0,1.0,0.3309,
82.5502,0.4178,0.0,54.166,55.445,0.0,1.0,0.4178,
82.7502,0.4748,0.0,56.162,57.412,0.0,1.0,0.4748,
82.9502,0.53,0.0,58.162,59.387,0.0,1.0,0.53,
83.1502,0.585,0.0,60.158,61.358,0.0,1.0,0.585,
83.3502,0.6389,0.0,62.154,63.333,0.0,1.0,0.6389,
83.5502,0.6938,0.0,64.15,65.316,0.0,1.0,0.6938,
83.7502,0.7478,0.0,66.145,67.295,0.0,1.0,0.7478,
83.9502,0.8029,0.0,68.145,69.283,0.0,1.0,0.8029,
84.1502,0.8576,0.0,70.141,71.266,0.0,1.0,0.8576,
84.3502,0.913,0.0,72.137,73.25,0.0,1.0,0.913,
84.5502,0.9688,0.0,74.133,75.241,0.0,1.0,0.9688,
84.7502,1.023,0.0,76.129,77.225,0.0,1.0,1.023,
84.9502,1.0786,0.0,78.129,79.212,0.0,1.0,1.0786,
85.1502,1.1306,0.0,80.125,81.195,0.0,1.0,1.1306,
85.3502,1.1869,0.0,82.12,83.191,0.0,1.0,1.1869,
85.5502,1.2428,0.0,84.116,85.179,0.0,1.0,1.2428,
85.7502,1.3006,0.0,86.116,87.162,0.0,1.0,1.3006,
85.9502,1.3503,0.0,88.112,89.145,0.0,1.0,1.3503,
86.1502,1.4072,0.0,90.108,91.133,0.0,1.0,1.4072,
86.3502,1.4636,0.0,92.104,93.12,0.0,1.0,1.4636,
86.5502,1.5218,0.0,94.1,95.104,0.0,1.0,1.5218,
86.7502,1.5802,0.0,96.1,97.087,0.0,1.0,1.5802,
86.9502,1.631,0.0,98.095,99.075,0.0,1.0,1.631,
87.1502,1.6987,0.0,100.091,101.062,0.0,1.0,1.6987,
87.3502,1.7537,0.0,102.087,103.054,0.0,1.0,1.7537,
87.5502,1.8103,0.0,104.083,105.041,0.0,1.0,1.8103,
87.7502,1.8722,0.0,106.083,107.033,0.0,1.0,1.8722,
87.9502,1.9348,0.0,108.079,109.016,0.0,1.0,1.9348,
88.1502,1.988,0.0,110.075,111.004,0.0,1.0,1.988,
88.3502,2.0536,0.0,112.07,112.995,0.0,1.0,2.0536,
88.5502,2.1154,0.0,114.07,114.987,0.0,1.0,2.1154,
88.7502,2.1766,0.0,116.066,116.979,0.0,1.0,2.1766,
88.9502,2.2369,0.0,118.062,118.966,0.0,1.0,2.2369,
89.1502,2.2991,0.0,120.058,120.958,0.0,1.0,2.2991,
89.3502,2.3622,0.0,122.054,122.95,0.0,1.0,2.3622,
89.5502,2.4268,0.0,124.054,124.941,0.0,1.0,2.4268,
89.7502,2.4902,0.0,126.05,126.933,0.0,1.0,2.4902,
89.9502,2.5493,0.0,128.045,128.929,0.0,1.0,2.5493,
90.1502,2.617,0.0,130.041,130.92,0.0,1.0,2.617,
90.3502,2.682,0.0,132.037,132.908,0.0,1.0,2.682,
90.5502,2.744,0.0,134.037,134.908,0.0,1.0,2.744,
90.7502,2.8136,0.0,136.033,136.904,0.0,1.0,2.8136,
90.9502,2.8812,0.0,138.029,138.9,0.0,1.0,2.8812,
91.1502,2.9483,0.0,140.025,140.895,0.0,1.0,2.9483,
91.3502,3.0177,0.0,142.02,142.887,0.0,1.0,3.0177,
91.5502,3.0895,0.0,144.02,144.879,0.0,1.0,3.0895,
91.7502,3.1579,0.0,146.016,146.87,0.0,1.0,3.1579,
91.9502,3.2333,0.0,148.012,148.858,0.0,1.0,3.2333,
92.1502,3.3043,0.0,150.008,150.854,0.0,1.0,3.3043,
92.3502,3.3749,0.0,152.008,152.837,0.0,1.0,3.3749,
92.5502,3.4289,0.0,154.004,154.829,0.0,1.0,3.4289,
92.7502,3.5174,0.0,156.0,156.82,0.0,1.0,3.5174,
92.9502,3.5874,0.0,157.995,158.816,0.0,1.0,3.5874,
93.1502,3.6605,0.0,159.991,160.812,0.0,1.0,3.6605,
93.3502,3.7339,0.0,161.991,162.804,0.0,1.0,3.7339,
93.5502,3.8053,0.0,163.987,164.8,0.0,1.0,3.8053,
93.7502,3.8803,0.0,165.983,166.795,0.0,1.0,3.8803,
93.9502,3.9497,0.0,167.979,168.791,0.0,1.0,3.9497,
94.1502,4.023,0.0,169.975,170.783,0.0,1.0,4.023,
94.3502,4.1015,0.0,171.975,172.775,0.0,1.0,4.1015,
94.5502,4.1721,0.0,173.97,174.77,0.0,1.0,4.1721,
94.7502,4.2484,0.0,175.966,176.766,0.0,1.0,4.2484,
94.9502,4.3276,0.0,177.962,178.758,0.0,1.0,4.3276,
95.1502,4.4055,0.0,179.962,180.75,0.0,1.0,4.4055,
95.3502,4.4812,0.0,181.958,182.741,0.0,1.0,4.4812,
95.5502,4.5563,0.0,183.954,184.741,0.0,1.0,4.5563,
95.7502,4.6402,0.0,185.95,186.737,0.0,1.0,4.6402,
95.9502,4.7196,0.0,187.945,188.737,0.0,1.0,4.7196,
96.1502,4.7994,0.0,189.945,190.729,0.0,1.0,4.7994,
96.3502,4.8824,0.0,191.941,192.729,0.0,1.0,4.8824,
96.5502,4.9629,0.0,193.937,194.725,0.0,1.0,4.9629,
96.7502,5.0464,0.0,195.933,196.716,0.0,1.0,5.0464,
96.9502,5.1276,0.0,197.929,198.712,0.0,1.0,5.1276,
97.1502,5.2123,0.0,199.929,200.691,0.0,1.0,5.2123,
97.3502,5.2949,0.0,201.925,202.691,0.0,1.0,5.2949,
97.5502,5.3789,0.0,203.92,204.683,0.0,1.0,5.3789,
97.7502,5.4646,0.0,205.916,206.675,0.0,1.0,5.4646,
97.9502,5.5538,0.0,207.916,208.666,0.0,1.0,5.5538,
98.1502,5.6387,0.0,209.912,210.658,0.0,1.0,5.6387,
98.3502,5.7283,0.0,211.908,212.654,0.0,1.0,5.7283,
98.5502,5.8162,0.0,213.904,214.654,0.0,1.0,5.8162,
98.7502,5.9066,0.0,215.9,216.645,0.0,1.0,5.9066,
98.9502,5.9963,0.0,217.9,218.633,0.0,1.0,5.9963,
99.1502,6.0884,0.0,219.895,220.633,0.0,1.0,6.0884,
99.3502,6.1814,0.0,221.891,222.629,0.0,1.0,6.1814,
99.5502,6.2724,0.0,223.887,224.625,0.0,1.0,6.2724,
99.7502,6.3677,0.0,225.883,226.612,0.0,1.0,6.3677,
99.9502,6.461,0.0,227.883,228.608,0.0,1.0,6.461,
100.15,6.5577,0.0,229.879,230.604,0.0,1.0,6.5577,
100.35,6.6546,0.0,231.875,232.604,0.0,1.0,6.6546,
100.55,6.7515,0.0,233.87,234.6,0.0,1.0,6.7515,
100.75,6.8489,0.0,235.866,236.595,0.0,1.0,6.8489,
100.95,6.9471,0.0,237.866,238.587,0.0,1.0,6.9471,
101.15,7.0479,0.0,239.862,240.595,0.0,1.0,7.0479,
101.35,7.1489,0.0,241.858,242.587,0.0,1.0,7.1489,
101.55,7.2479,0.0,243.854,244.587,0.0,1.0,7.2479,
101.75,7.3503,0.0,245.854,246.583,0.0,1.0,7.3503,
101.95,7.4526,0.0,247.85,248.575,0.0,1.0,7.4526,
102.15,7.5576,0.0,249.845,250.579,0.0,1.0,7.5576,
102.35,7.6623,0.0,251.841,252.562,0.0,1.0,7.6623,
102.55,7.7676,0.0,253.837,254.558,0.0,1.0,7.7676,
102.75,7.8766,0.0,255.837,256.545,0.0,1.0,7.8766,
102.95,7.9819,0.0,257.833,258.541,0.0,1.0,7.9819,
103.15,8.0889,0.0,259.829,260.533,0.0,1.0,8.0889,
103.35,8.1987,0.0,261.825,262.529,0.0,1.0,8.1987,
103.55,8.3089,0.0,263.82,264.516,0.0,1.0,8.3089,
103.75,8.4185,0.0,265.82,266.516,0.0,1.0,8.4185,
103.95,8.5311,0.0,267.816,268.508,0.0,1.0,8.5311,
104.15,8.6424,0.0,269.812,270.508,0.0,1.0,8.6424,
104.35,8.7566,0.0,271.808,272.5,0.0,1.0,8.7566,
104.55,8.8704,0.0,273.808,274.491,0.0,1.0,8.8704,
104.75,8.9844,0.0,275.804,276.491,0.0,1.0,8.9844,
104.95,9.1018,0.0,277.8,278.487,0.0,1.0,9.1018,
105.15,9.2209,0.0,279.795,280.491,0.0,1.0,9.2209,
105.35,9.3374,0.0,281.791,282.479,0.0,1.0,9.3374,
105.55,9.4584,0.0,283.791,284.475,0.0,1.0,9.4584,
105.75,9.5777,0.0,285.787,286.466,0.0,1.0,9.5777,
105.95,9.7009,0.0,287.783,288.47,0.0,1.0,9.7009,
106.15,9.8231,0.0,289.779,290.47,0.0,1.0,9.8231,
106.35,9.9462,0.0,291.775,292.466,0.0,1.0,9.9462,
106.55,10.0731,0.0,293.775,294.458,0.0,1.0,10.0731,
106.75,10.2002,0.0,295.77,296.454,0.0,1.0,10.2002,
106.95,10.3231,0.0,297.766,298.454,0.0,1.0,10.3231,
107.15,10.4502,0.0,299.762,300.458,0.0,1.0,10.4502,
107.35,10.5744,0.0,301.762,302.458,0.0,1.0,10.5744,
107.55,10.7,0.0,303.758,304.454,0.0,1.0,10.7,
107.75,10.8288,0.0,305.754,306.454,0.0,1.0,10.8288,
107.95,10.9588,0.0,307.75,308.445,0.0,1.0,10.9588,
108.15,11.0921,0.0,309.745,310.445,0.0,1.0,11.0921,
108.35,11.2244,0.0,311.745,312.441,0.0,1.0,11.2244,
108.55,11.3674,0.0,313.741,314.437,0.0,1.0,11.3674,
108.75,11.5049,0.0,315.737,316.429,0.0,1.0,11.5049,
108.95,11.6491,0.0,317.733,318.425,0.0,1.0,11.6491,
109.15,11.794,0.0,319.729,320.416,0.0,1.0,11.794,
109.35,11.9438,0.0,321.729,322.416,0.0,1.0,11.9438,
109.55,12.0962,0.0,323.725,324.404,0.0,1.0,12.0962,
109.75,12.2529,0.0,325.72,326.4,0.0,1.0,12.2529,
109.95,12.4178,0.0,327.716,328.395,0.0,1.0,12.4178,
110.15,12.5926,0.0,329.712,330.387,0.0,1.0,12.5926,
110.35,12.786,0.0,331.712,332.383,0.0,1.0,12.786,
110.55,12.9976,0.0,333.708,334.375,0.0,1.0,12.9976,
110.75,13.2397,0.0,335.704,336.366,0.0,1.0,13.2397,
110.95,13.5107,0.0,337.7,338.37,0.0,1.0,13.5107,
111.15,13.6172,0.0,339.7,340.366,0.0,1.0,13.6172,
111.35,13.4918,0.0,341.695,342.362,0.0,1.0,13.4918,
111.55,13.4655,0.0,343.691,344.358,0.0,1.0,13.4655,
111.75,13.5614,0.0,345.687,346.354,0.0,1.0,13.5614,
111.95,13.6949,0.0,347.683,348.358,0.0,1.0,13.6949,
112.15,13.8422,0.0,349.683,350.354,0.0,1.0,13.8422,
112.35,13.9977,0.0,351.679,352.35,0.0,1.0,13.9977,
112.55,14.1514,0.0,353.675,354.345,0.0,1.0,14.1514,
112.75,14.3074,0.0,355.67,356.354,0.0,1.0,14.3074,
112.95,14.4675,0.0,357.666,358.345,0.0,1.0,14.4675,
113.15,14.6265,0.0,359.666,360.35,0.0,1.0,14.6265,
113.35,14.7863,0.0,361.662,362.341,0.0,1.0,14.7863,
113.55,14.9315,0.0,363.658,364.333,0.0,1.0,14.9315,
113.75,15.0958,0.0,365.654,366.329,0.0,1.0,15.0958,
113.95,15.2607,0.0,367.654,368.325,0.0,1.0,15.2607,
114.15,15.425,0.0,369.65,370.32,0.0,1.0,15.425,
114.35,15.5954,0.0,371.645,372.308,0.0,1.0,15.5954,
114.55,15.7646,0.0,373.641,374.304,0.0,1.0,15.7646,
114.75,15.9355,0.0,375.637,376.3,0.0,1.0,15.9355,
114.95,16.108,0.0,377.637,378.295,0.0,1.0,16.108,
115.15,16.2797,0.0,379.633,380.295,0.0,1.0,16.2797,
115.35,16.4215,0.0,378.366,379.5,0.0,1.0,16.4215,
115.55,16.0832,0.0,376.37,377.508,0.0,1.0,16.0832,
115.75,15.8893,0.0,374.375,375.508,0.0,1.0,15.8893,
115.95,15.7005,0.0,372.379,373.52,0.0,1.0,15.7005,
116.15,15.5163,0.0,370.383,371.533,0.0,1.0,15.5163,
116.35,15.3354,0.0,368.383,369.541,0.0,1.0,15.3354,
116.55,15.1551,0.0,366.387,367.545,0.0,1.0,15.1551,
116.75,14.9784,0.0,364.391,365.554,0.0,1.0,14.9784,
116.95,14.8013,0.0,362.395,363.562,0.0,1.0,14.8013,
117.15,14.6284,0.0,360.395,361.575,0.0,1.0,14.6284,
117.35,14.4608,0.0,358.4,359.575,0.0,1.0,14.4608,
117.55,14.289,0.0,356.404,357.583,0.0,1.0,14.289,
117.75,14.1234,0.0,354.408,355.579,0.0,1.0,14.1234,
117.95,13.9591,0.0,352.412,353.583,0.0,1.0,13.9591,
118.15,13.7967,0.0,350.412,351.587,0.0,1.0,13.7967,
118.35,13.6354,0.0,348.416,349.595,0.0,1.0,13.6354,
118.55,13.4787,0.0,346.42,347.6,0.0,1.0,13.4787,
118.75,13.3188,0.0,344.425,345.595,0.0,1.0,13.3188,
118.95,13.1642,0.0,342.429,343.604,0.0,1.0,13.1642,
119.15,13.0091,0.0,340.429,341.604,0.0,1.0,13.0091,
119.35,12.8601,0.0,338.433,339.612,0.0,1.0,12.8601,
119.55,12.7104,0.0,336.437,337.616,0.0,1.0,12.7104,
119.75,12.5621,0.0,334.441,335.625,0.0,1.0,12.5621,
119.95,12.4168,0.0,332.441,333.633,0.0,1.0,12.4168,
120.15,12.2726,0.0,330.445,331.641,0.0,1.0,12.2726,
120.35,12.1278,0.0,328.45,329.65,0.0,1.0,12.1278,
120.55,11.9863,0.0,326.454,327.654,0.0,1.0,11.9863,
120.75,11.8461,0.0,324.458,325.658,0.0,1.0,11.8461,
120.95,11.7059,0.0,322.458,323.67,0.0,1.0,11.7059,
121.15,11.567,0.0,320.462,321.683,0.0,1.0,11.567,
121.35,11.4295,0.0,318.466,319.683,0.0,1.0,11.4295,
121.55,11.2924,0.0,316.47,317.691,0.0,1.0,11.2924,
121.75,11.1571,0.0,314.475,315.7,0.0,1.0,11.1571,
121.95,11.0239,0.0,312.475,313.712,0.0,1.0,11.0239,
122.15,10.8877,0.0,310.479,311.704,0.0,1.0,10.8877,
122.35,10.7606,0.0,308.483,309.712,0.0,1.0,10.7606,
122.55,10.6299,0.0,306.487,307.72,0.0,1.0,10.6299,
122.75,10.4969,0.0,304.491,305.729,0.0,1.0,10.4969,
122.95,10.3588,0.0,302.491,303.733,0.0,1.0,10.3588,
123.15,10.1497,0.0,300.495,301.737,0.0,1.0,10.1497,
123.35,9.6068,0.0,298.5,299.741,0.0,1.0,9.6068,
123.55,8.3878,0.0,296.504,297.75,0.0,1.0,8.3878,
123.75,8.7066,0.0,294.504,295.75,0.0,1.0,8.7066,
123.95,9.4171,0.0,292.508,293.75,0.0,1.0,9.4171,
124.15,9.4588,0.0,290.512,291.758,0.0,1.0,9.4588,
124.35,9.3941,0.0,288.516,289.758,0.0,1.0,9.3941,
124.55,9.3039,0.0,286.52,287.762,0.0,1.0,9.3039,
124.75,9.2018,0.0,284.52,285.766,0.0,1.0,9.2018,
124.95,9.0989,0.0,282.525,283.779,0.0,1.0,9.0989,
125.15,8.993,0.0,280.529,281.783,0.0,1.0,8.993,
125.35,8.8833,0.0,278.533,279.791,0.0,1.0,8.8833,
125.55,8.7781,0.0,276.537,277.791,0.0,1.0,8.7781,
125.75,8.671,0.0,274.537,275.795,0.0,1.0,8.671,
125.95,8.5627,0.0,272.541,273.808,0.0,1.0,8.5627,
126.15,8.4569,0.0,270.545,271.808,0.0,1.0,8.4569,
126.35,8.3509,0.0,268.55,269.812,0.0,1.0,8.3509,
126.55,8.2451,0.0,266.55,267.82,0.0,1.0,8.2451,
126.75,8.1419,0.0,264.554,265.833,0.0,1.0,8.1419,
126.95,8.036,0.0,262.558,263.837,0.0,1.0,8.036,
127.15,7.934,0.0,260.562,261.845,0.0,1.0,7.934,
127.35,7.83,0.0,258.566,259.854,0.0,1.0,7.83,
127.55,7.7282,0.0,256.566,257.866,0.0,1.0,7.7282,
127.75,7.627,0.0,254.57,255.875,0.0,1.0,7.627,
127.95,7.5283,0.0,252.575,253.887,0.0,1.0,7.5283,
128.15,7.4284,0.0,250.579,251.895,0.0,1.0,7.4284,
128.35,7.3305,0.0,248.583,249.908,0.0,1.0,7.3305,
128.55,7.233,0.0,246.583,247.916,0.0,1.0,7.233,
128.75,7.1388,0.0,244.587,245.916,0.0,1.0,7.1388,
128.95,7.0413,0.0,242.591,243.925,0.0,1.0,7.0413,
129.15,6.9455,0.0,240.595,241.929,0.0,1.0,6.9455,
129.35,6.851,0.0,238.595,239.929,0.0,1.0,6.851,
129.55,6.7578,0.0,236.6,237.937,0.0,1.0,6.7578,
129.75,6.6658,0.0,234.604,235.941,0.0,1.0,6.6658,
129.95,6.573,0.0,232.608,233.945,0.0,1.0,6.573,
130.15,6.4837,0.0,230.612,231.95,0.0,1.0,6.4837,
130.35,6.3925,0.0,228.612,229.958,0.0,1.0,6.3925,
130.55,6.3041,0.0,226.616,227.958,0.0,1.0,6.3041,
130.75,6.2151,0.0,224.62,225.975,0.0,1.0,6.2151,
130.95,6.1271,0.0,222.625,223.975,0.0,1.0,6.1271,
131.15,6.041,0.0,220.629,221.983,0.0,1.0,6.041,
131.35,5.9536,0.0,218.629,219.991,0.0,1.0,5.9536,
131.55,5.8697,0.0,216.633,218.004,0.0,1.0,5.8697,
131.75,5.7845,0.0,214.637,216.008,0.0,1.0,5.7845,
131.95,5.7004,0.0,212.641,214.016,0.0,1.0,5.7004,
132.15,5.6184,0.0,210.645,212.025,0.0,1.0,5.6184,
132.35,5.5374,0.0,208.645,210.037,0.0,1.0,5.5374,
132.55,5.4548,0.0,206.65,208.05,0.0,1.0,5.4548,
132.75,5.3747,0.0,204.654,206.058,0.0,1.0,5.3747,
132.95,5.2953,0.0,202.658,204.066,0.0,1.0,5.2953,
133.15,5.216,0.0,200.658,202.075,0.0,1.0,5.216,
133.35,5.1379,0.0,198.662,200.087,0.0,1.0,5.1379,
133.55,5.0608,0.0,196.666,198.095,0.0,1.0,5.0608,
133.75,4.9837,0.0,194.67,196.112,0.0,1.0,4.9837,
133.95,4.9087,0.0,192.675,194.12,0.0,1.0,4.9087,
134.15,4.8334,0.0,190.675,192.129,0.0,1.0,4.8334,
134.35,4.7595,0.0,188.679,190.133,0.0,1.0,4.7595,
134.55,4.6848,0.0,186.683,188.141,0.0,1.0,4.6848,
134.75,4.6111,0.0,184.687,186.15,0.0,1.0,4.6111,
134.95,4.5384,0.0,182.691,184.154,0.0,1.0,4.5384,
135.15,4.4659,0.0,180.691,182.158,0.0,1.0,4.4659,
135.35,4.3936,0.0,178.695,180.166,0.0,1.0,4.3936,
135.55,4.3224,0.0,176.7,178.179,0.0,1.0,4.3224,
135.75,4.253,0.0,174.704,176.187,0.0,1.0,4.253,
135.95,4.1837,0.0,172.704,174.195,0.0,1.0,4.1837,
136.15,4.1145,0.0,170.708,172.204,0.0,1.0,4.1145,
136.35,4.0461,0.0,168.712,170.216,0.0,1.0,4.0461,
136.55,3.9783,0.0,166.716,168.225,0.0,1.0,3.9783,
136.75,3.9111,0.0,164.72,166.233,0.0,1.0,3.9111,
136.95,3.846,0.0,162.72,164.245,0.0,1.0,3.846,
137.15,3.7813,0.0,160.725,162.254,0.0,1.0,3.7813,
137.35,3.7164,0.0,158.729,160.262,0.0,1.0,3.7164,
137.55,3.6538,0.0,156.733,158.27,0.0,1.0,3.6538,
137.75,3.5901,0.0,154.737,156.283,0.0,1.0,3.5901,
137.95,3.5279,0.0,152.737,154.295,0.0,1.0,3.5279,
138.15,3.4686,0.0,150.741,152.308,0.0,1.0,3.4686,
138.35,3.4076,0.0,148.745,150.32,0.0,1.0,3.4076,
138.55,3.3491,0.0,146.75,148.341,0.0,1.0,3.3491,
138.75,3.2895,0.0,144.75,146.345,0.0,1.0,3.2895,
138.95,3.2303,0.0,142.754,144.362,0.0,1.0,3.2303,
139.15,3.1738,0.0,140.758,142.379,0.0,1.0,3.1738,
139.35,3.1173,0.0,138.762,140.391,0.0,1.0,3.1173,
139.55,3.0613,0.0,136.766,138.404,0.0,1.0,3.0613,
139.75,3.0045,0.0,134.766,136.412,0.0,1.0,3.0045,
139.95,2.9485,0.0,132.77,134.42,0.0,1.0,2.9485,
140.15,2.8933,0.0,130.775,132.433,0.0,1.0,2.8933,
140.35,2.8408,0.0,128.779,130.45,0.0,1.0,2.8408,
140.55,2.7864,0.0,126.783,128.458,0.0,1.0,2.7864,
140.75,2.7322,0.0,124.783,126.475,0.0,1.0,2.7322,
140.95,2.6772,0.0,122.787,124.487,0.0,1.0,2.6772,
141.15,2.6263,0.0,120.791,122.5,0.0,1.0,2.6263,
141.35,2.5736,0.0,118.795,120.52,0.0,1.0,2.5736,
141.55,2.5224,0.0,116.795,118.537,0.0,1.0,2.5224,
141.75,2.4705,0.0,114.8,116.554,0.0,1.0,2.4705,
141.95,2.4212,0.0,112.804,114.57,0.0,1.0,2.4212,
142.15,2.3729,0.0,110.808,112.587,0.0,1.0,2.3729,
142.35,2.3249,0.0,108.812,110.608,0.0,1.0,2.3249,
142.55,2.2756,0.0,106.812,108.62,0.0,1.0,2.2756,
142.75,2.2317,0.0,104.816,106.645,0.0,1.0,2.2317,
142.95,2.1873,0.0,102.82,104.67,0.0,1.0,2.1873,
143.15,2.1423,0.0,100.825,102.691,0.0,1.0,2.1423,
143.35,2.1028,0.0,98.829,100.712,0.0,1.0,2.1028,
143.55,2.0573,0.0,96.829,98.737,0.0,1.0,2.0573,
143.75,2.0183,0.0,94.833,96.766,0.0,1.0,2.0183,
143.95,1.9771,0.0,92.837,94.791,0.0,1.0,1.9771,
144.15,1.9408,0.0,90.841,92.816,0.0,1.0,1.9408,
144.35,1.9052,0.0,88.845,90.85,0.0,1.0,1.9052,
144.55,1.8691,0.0,86.845,88.879,0.0,1.0,1.8691,
144.75,1.8401,0.0,84.85,86.912,0.0,1.0,1.8401,
144.95,1.8153,0.0,82.854,84.95,0.0,1.0,1.8153,
145.15,1.7877,0.0,80.858,82.983,0.0,1.0,1.7877,
145.35,1.7674,0.0,78.858,81.012,0.0,1.0,1.7674,
145.55,1.7502,0.0,76.862,79.054,0.0,1.0,1.7502,
145.75,1.7424,0.0,74.866,77.091,0.0,1.0,1.7424,
145.95,1.7371,0.0,72.87,75.129,0.0,1.0,1.7371,
146.15,1.7427,0.0,70.875,73.179,0.0,1.0,1.7427,
146.35,1.7675,0.0,68.875,71.233,0.0,1.0,1.7675,
146.55,1.8103,0.0,66.879,69.287,0.0,1.0,1.8103,
146.75,1.8876,0.0,64.883,67.358,0.0,1.0,1.8876,
146.95,1.6134,0.0,62.887,65.475,0.0,1.0,1.6134,
147.15,1.3899,0.0,60.891,63.833,0.0,1.0,1.3899,
147.35,1.2797,0.0,58.891,62.437,0.0,1.0,1.2797,
147.55,1.1889,0.0,56.895,61.25,0.0,1.0,1.1889,
147.75,1.1049,0.0,54.9,60.229,0.0,1.0,1.1049,
147.95,1.0245,0.0,52.904,59.358,0.0,1.0,1.0245,
148.15,0.9473,0.0,50.904,58.612,0.0,1.0,0.9473,
148.35,0.873,0.0,48.908,57.975,0.0,1.0,0.873,
148.55,0.8002,0.0,46.912,57.429,0.0,1.0,0.8002,
148.75,0.729,0.0,44.916,56.958,0.0,1.0,0.729,
148.95,0.6607,0.0,42.92,56.558,0.0,1.0,0.6607,
149.15,0.5928,0.0,40.92,56.212,0.0,1.0,0.5928,
149.35,0.526,0.0,38.925,55.912,0.0,1.0,0.526,
149.55,0.4602,0.0,36.929,55.658,0.0,1.0,0.4602,
149.75,0.3961,0.0,34.933,55.437,0.0,1.0,0.3961,
149.95,0.3317,0.0,32.937,55.254,0.0,1.0,0.3317,
150.15,0.2685,0.0,30.937,55.141,0.0,1.0,0.2685,
150.5975,0.2346,0.0,30.0,54.804,0.0,1.0,0.2346,
151.264,0.2299,0.0,30.0,54.516,0.0,1.0,0.2299,
151.931,0.2273,0.0,30.0,54.329,0.0,1.0,0.2273,
152.5975,0.226,0.0,30.0,54.208,0.0,1.0,0.226,
153.264,0.2267,0.0,30.0,54.129,0.0,1.0,0.2267,
153.931,0.2264,0.0,30.0,54.07,0.0,1.0,0.2264,
154.5975,0.227,0.0,30.0,54.02,0.0,1.0,0.227,
155.256,0.2316,0.0,30.029,53.983,0.0,1.0,0.2316,
155.456,0.289,0.0,32.029,53.966,0.0,1.0,0.289,
155.656,0.3498,0.0,34.025,53.958,0.0,1.0,0.3498,
155.856,0.41,0.0,36.02,53.95,0.0,1.0,0.41,
156.056,0.4706,0.0,38.016,53.941,0.0,1.0,0.4706,
156.256,0.5309,0.0,40.012,53.929,0.0,1.0,0.5309,
156.456,0.5915,0.0,42.012,53.92,0.0,1.0,0.5915,
156.656,0.6522,0.0,44.008,53.912,0.0,1.0,0.6522,
156.856,0.712,0.0,46.004,53.9,0.0,1.0,0.712,
157.056,0.7728,0.0,48.0,53.895,0.0,1.0,0.7728,
157.256,0.8324,0.0,49.995,53.883,0.0,1.0,0.8324,
157.456,-0.3548,0.0,51.995,53.883,0.0,1.0,-0.3548,
157.656,-0.3484,0.0,53.991,55.416,0.0,1.0,-0.3484,
157.856,0.2457,0.0,55.987,57.379,0.0,1.0,0.2457,
158.056,0.3361,0.0,57.983,59.341,0.0,1.0,0.3361,
158.256,0.3921,0.0,59.983,61.316,0.0,1.0,0.3921,
158.456,0.4473,0.0,61.979,63.291,0.0,1.0,0.4473,
158.656,0.5034,0.0,63.975,65.262,0.0,1.0,0.5034,
158.856,0.5571,0.0,65.97,67.241,0.0,1.0,0.5571,
159.056,0.6124,0.0,67.966,69.225,0.0,1.0,0.6124,
159.256,0.6663,0.0,69.966,71.204,0.0,1.0,0.6663,
159.456,0.7212,0.0,71.962,73.187,0.0,1.0,0.7212,
159.656,0.775,0.0,73.958,75.17,0.0,1.0,0.775,
159.856,0.8291,0.0,75.954,77.162,0.0,1.0,0.8291,
160.056,0.8852,0.0,77.95,79.141,0.0,1.0,0.8852,
160.256,0.9393,0.0,79.95,81.125,0.0,1.0,0.9393,
160.456,0.9848,0.0,81.945,83.116,0.0,1.0,0.9848,
160.656,1.0462,0.0,83.941,85.104,0.0,1.0,1.0462,
160.856,1.1033,0.0,85.937,87.083,0.0,1.0,1.1033,
161.056,1.1572,0.0,87.937,89.066,0.0,1.0,1.1572,
161.256,1.2088,0.0,89.933,91.05,0.0,1.0,1.2088,
161.456,1.268,0.0,91.929,93.033,0.0,1.0,1.268,
161.656,1.3255,0.0,93.925,95.02,0.0,1.0,1.3255,
161.856,1.3847,0.0,95.92,97.0,0.0,1.0,1.3847,
162.056,1.4397,0.0,97.92,98.987,0.0,1.0,1.4397,
162.256,1.4983,0.0,99.916,100.97,0.0,1.0,1.4983,
162.456,1.5598,0.0,101.912,102.966,0.0,1.0,1.5598,
162.656,1.6032,0.0,103.908,104.95,0.0,1.0,1.6032,
162.856,1.6726,0.0,105.904,106.937,0.0,1.0,1.6726,
163.056,1.7335,0.0,107.904,108.925,0.0,1.0,1.7335,
163.256,1.797,0.0,109.9,110.916,0.0,1.0,1.797,
163.456,1.8542,0.0,111.895,112.904,0.0,1.0,1.8542,
163.656,1.9174,0.0,113.891,114.891,0.0,1.0,1.9174,
163.856,1.9776,0.0,115.887,116.883,0.0,1.0,1.9776,
164.056,2.0397,0.0,117.887,118.87,0.0,1.0,2.0397,
164.256,2.1034,0.0,119.883,120.866,0.0,1.0,2.1034,
164.456,2.1642,0.0,121.879,122.854,0.0,1.0,2.1642,
164.656,2.2234,0.0,123.875,124.845,0.0,1.0,2.2234,
164.856,2.2913,0.0,125.875,126.837,0.0,1.0,2.2913,
165.056,2.354,0.0,127.87,128.825,0.0,1.0,2.354,
165.256,2.416,0.0,129.866,130.82,0.0,1.0,2.416,
165.456,2.4816,0.0,131.862,132.808,0.0,1.0,2.4816,
165.656,2.5471,0.0,133.858,134.808,0.0,1.0,2.5471,
165.856,2.6134,0.0,135.858,136.804,0.0,1.0,2.6134,
166.056,2.6817,0.0,137.854,138.8,0.0,1.0,2.6817,
166.256,2.7517,0.0,139.85,140.795,0.0,1.0,2.7517,
166.456,2.8197,0.0,141.845,142.783,0.0,1.0,2.8197,
166.656,2.8908,0.0,143.841,144.77,0.0,1.0,2.8908,
166.856,2.959,0.0,145.841,146.758,0.0,1.0,2.959,
167.056,3.032,0.0,147.837,148.75,0.0,1.0,3.032,
167.256,3.1015,0.0,149.833,150.741,0.0,1.0,3.1015,
167.456,3.1758,0.0,151.829,152.733,0.0,1.0,3.1758,
167.656,3.2461,0.0,153.829,154.72,0.0,1.0,3.2461,
167.856,3.3131,0.0,155.825,156.716,0.0,1.0,3.3131,
168.056,3.3865,0.0,157.82,158.708,0.0,1.0,3.3865,
168.256,3.4596,0.0,159.816,160.704,0.0,1.0,3.4596,
168.456,3.5307,0.0,161.812,162.691,0.0,1.0,3.5307,
168.656,3.6058,0.0,163.812,164.687,0.0,1.0,3.6058,
168.856,3.6793,0.0,165.808,166.679,0.0,1.0,3.6793,
169.056,3.7415,0.0,167.804,168.679,0.0,1.0,3.7415,
169.256,3.8162,0.0,169.8,170.666,0.0,1.0,3.8162,
169.456,3.8964,0.0,171.795,172.662,0.0,1.0,3.8964,
169.656,3.9761,0.0,173.795,174.658,0.0,1.0,3.9761,
169.856,4.0541,0.0,175.791,176.654,0.0,1.0,4.0541,
170.056,4.1294,0.0,177.787,178.65,0.0,1.0,4.1294,
170.256,4.2052,0.0,179.783,180.637,0.0,1.0,4.2052,
170.456,4.2838,0.0,181.783,182.633,0.0,1.0,4.2838,
170.656,4.3628,0.0,183.779,184.625,0.0,1.0,4.3628,
170.856,4.4408,0.0,185.775,186.629,0.0,1.0,4.4408,
171.056,4.5207,0.0,187.77,188.616,0.0,1.0,4.5207,
171.256,4.6019,0.0,189.766,190.616,0.0,1.0,4.6019,
171.456,4.6828,0.0,191.766,192.612,0.0,1.0,4.6828,
171.656,4.763,0.0,193.762,194.608,0.0,1.0,4.763,
171.856,4.849,0.0,195.758,196.6,0.0,1.0,4.849,
172.056,4.9307,0.0,197.754,198.591,0.0,1.0,4.9307,
172.256,5.0117,0.0,199.75,200.583,0.0,1.0,5.0117,
172.456,5.0886,0.0,201.75,202.579,0.0,1.0,5.0886,
172.656,5.1814,0.0,203.745,204.57,0.0,1.0,5.1814,
172.856,5.2662,0.0,205.741,206.558,0.0,1.0,5.2662,
173.056,5.3536,0.0,207.737,208.554,0.0,1.0,5.3536,
173.256,5.4419,0.0,209.737,210.537,0.0,1.0,5.4419,
173.456,5.53,0.0,211.733,212.537,0.0,1.0,5.53,
173.656,5.6173,0.0,213.729,214.529,0.0,1.0,5.6173,
173.856,5.7076,0.0,215.725,216.529,0.0,1.0,5.7076,
174.056,5.7993,0.0,217.72,218.516,0.0,1.0,5.7993,
174.256,5.8905,0.0,219.72,220.512,0.0,1.0,5.8905,
174.456,5.982,0.0,221.716,222.504,0.0,1.0,5.982,
174.656,6.0751,0.0,223.712,224.5,0.0,1.0,6.0751,
174.856,6.1686,0.0,225.708,226.495,0.0,1.0,6.1686,
175.056,6.2639,0.0,227.704,228.491,0.0,1.0,6.2639,
175.256,6.3603,0.0,229.704,230.491,0.0,1.0,6.3603,
175.456,6.4548,0.0,231.7,232.483,0.0,1.0,6.4548,
175.656,6.5533,0.0,233.695,234.483,0.0,1.0,6.5533,
175.856,6.6507,0.0,235.691,236.479,0.0,1.0,6.6507,
176.056,6.7494,0.0,237.687,238.466,0.0,1.0,6.7494,
176.256,6.8476,0.0,239.687,240.47,0.0,1.0,6.8476,
176.456,6.9457,0.0,241.683,242.466,0.0,1.0,6.9457,
176.656,7.0489,0.0,243.679,244.466,0.0,1.0,7.0489,
176.856,7.1497,0.0,245.675,246.462,0.0,1.0,7.1497,
177.056,7.2513,0.0,247.675,248.458,0.0,1.0,7.2513,
177.256,7.355,0.0,249.67,250.454,0.0,1.0,7.355,
177.456,7.4604,0.0,251.666,252.445,0.0,1.0,7.4604,
177.656,7.5662,0.0,253.662,254.441,0.0,1.0,7.5662,
177.856,7.6736,0.0,255.658,256.429,0.0,1.0,7.6736,
178.056,7.7785,0.0,257.658,258.416,0.0,1.0,7.7785,
178.256,7.888,0.0,259.654,260.412,0.0,1.0,7.888,
178.456,7.998,0.0,261.65,262.408,0.0,1.0,7.998,
178.656,8.1068,0.0,263.645,264.404,0.0,1.0,8.1068,
178.856,8.217,0.0,265.641,266.395,0.0,1.0,8.217,
179.056,8.331,0.0,267.641,268.383,0.0,1.0,8.331,
179.256,8.4435,0.0,269.637,270.383,0.0,1.0,8.4435,
179.456,8.5576,0.0,271.633,272.379,0.0,1.0,8.5576,
179.656,8.6715,0.0,273.629,274.37,0.0,1.0,8.6715,
179.856,8.7879,0.0,275.629,276.366,0.0,1.0,8.7879,
180.056,8.906,0.0,277.625,278.362,0.0,1.0,8.906,
180.256,9.0244,0.0,279.62,280.362,0.0,1.0,9.0244,
180.456,9.1422,0.0,281.616,282.358,0.0,1.0,9.1422,
180.656,9.2625,0.0,283.612,284.35,0.0,1.0,9.2625,
180.856,9.3835,0.0,285.612,286.345,0.0,1.0,9.3835,
181.056,9.5064,0.0,287.608,288.341,0.0,1.0,9.5064,
181.256,9.6313,0.0,289.604,290.345,0.0,1.0,9.6313,
181.456,9.7541,0.0,291.6,292.337,0.0,1.0,9.7541,
181.656,9.8841,0.0,293.595,294.337,0.0,1.0,9.8841,
181.856,10.0085,0.0,295.595,296.333,0.0,1.0,10.0085,
182.056,10.1343,0.0,297.591,298.329,0.0,1.0,10.1343,
182.256,10.2606,0.0,299.587,300.333,0.0,1.0,10.2606,
182.456,10.386,0.0,301.583,302.333,0.0,1.0,10.386,
182.656,10.5088,0.0,303.583,304.329,0.0,1.0,10.5088,
182.856,10.6407,0.0,305.579,306.325,0.0,1.0,10.6407,
183.056,10.7725,0.0,307.575,308.316,0.0,1.0,10.7725,
183.256,10.9055,0.0,309.57,310.312,0.0,1.0,10.9055,
183.456,11.0413,0.0,311.566,312.308,0.0,1.0,11.0413,
183.656,11.1778,0.0,313.566,314.312,0.0,1.0,11.1778,
183.856,11.3177,0.0,315.562,316.304,0.0,1.0,11.3177,
184.056,11.4606,0.0,317.558,318.295,0.0,1.0,11.4606,
184.256,11.6071,0.0,319.554,320.295,0.0,1.0,11.6071,
184.456,11.7559,0.0,321.55,322.287,0.0,1.0,11.7559,
184.656,11.9074,0.0,323.55,324.283,0.0,1.0,11.9074,
184.856,12.0646,0.0,325.545,326.27,0.0,1.0,12.0646,
185.056,12.2305,0.0,327.541,328.27,0.0,1.0,12.2305,
185.256,12.4057,0.0,329.537,330.262,0.0,1.0,12.4057,
185.456,12.5957,0.0,331.533,332.258,0.0,1.0,12.5957,
185.656,12.805,0.0,333.533,334.245,0.0,1.0,12.805,
185.856,13.0427,0.0,335.529,336.241,0.0,1.0,13.0427,
186.056,13.2933,0.0,337.525,338.241,0.0,1.0,13.2933,
186.256,13.4236,0.0,339.52,340.241,0.0,1.0,13.4236,
186.456,13.3034,0.0,341.52,342.233,0.0,1.0,13.3034,
186.656,13.2749,0.0,343.516,344.229,0.0,1.0,13.2749,
186.856,13.3722,0.0,345.512,346.229,0.0,1.0,13.3722,
187.056,13.5104,0.0,347.508,348.225,0.0,1.0,13.5104,
187.256,13.6568,0.0,349.504,350.229,0.0,1.0,13.6568,
187.456,13.8116,0.0,351.504,352.225,0.0,1.0,13.8116,
187.656,13.9681,0.0,353.5,354.22,0.0,1.0,13.9681,
187.856,14.1249,0.0,355.495,356.22,0.0,1.0,14.1249,
188.056,14.2847,0.0,357.491,358.22,0.0,1.0,14.2847,
188.256,14.4469,0.0,359.487,360.216,0.0,1.0,14.4469,
188.456,14.6062,0.0,361.487,362.212,0.0,1.0,14.6062,
188.656,14.7675,0.0,363.483,364.204,0.0,1.0,14.7675,
188.856,14.9175,0.0,365.479,366.2,0.0,1.0,14.9175,
189.056,15.0838,0.0,367.475,368.191,0.0,1.0,15.0838,
189.256,15.2517,0.0,369.475,370.191,0.0,1.0,15.2517,
189.456,15.4212,0.0,371.47,372.179,0.0,1.0,15.4212,
189.656,15.5908,0.0,373.466,374.175,0.0,1.0,15.5908,
189.856,15.764,0.0,375.462,376.17,0.0,1.0,15.764,
190.056,15.9351,0.0,377.458,378.166,0.0,1.0,15.9351,
190.256,16.1082,0.0,379.458,380.166,0.0,1.0,16.1082,
190.306,16.1511,0.0,379.954,380.662,0.0,1.0,16.1511,