File: Chapter4_Crystallinity-measurement/data/DSC/501023_2.csv
Time,Unsubtracted Heat Flow,Baseline Heat Flow,Program Temperature,Sample Temperature,Approx. Gas Flow,Heat Flow Calibration,Uncorrected Heat Flow,
0.0,-0.2802,0.0,30.0,56.65,0.0,1.0,-0.2802,
0.666667,0.0682,0.0,30.0,56.233,0.0,1.0,0.0682,
1.333333,0.0612,0.0,30.0,55.975,0.0,1.0,0.0612,
2.0,0.0582,0.0,30.0,55.804,0.0,1.0,0.0582,
2.666667,0.0579,0.0,30.0,55.687,0.0,1.0,0.0579,
3.333333,0.0581,0.0,30.0,55.604,0.0,1.0,0.0581,
4.0,0.0586,0.0,30.0,55.545,0.0,1.0,0.0586,
4.666667,0.0594,0.0,30.0,55.491,0.0,1.0,0.0594,
5.333333,0.1594,0.0,33.254,55.445,0.0,1.0,0.1594,
6.0,0.3606,0.0,39.912,55.404,0.0,1.0,0.3606,
6.666667,0.562,0.0,46.566,55.366,0.0,1.0,0.562,
7.333333,0.7295,0.0,53.225,55.329,0.0,1.0,0.7295,
8.0,0.1585,0.0,59.879,61.262,0.0,1.0,0.1585,
8.666667,0.3043,0.0,66.533,67.845,0.0,1.0,0.3043,
9.333333,0.4476,0.0,73.191,74.445,0.0,1.0,0.4476,
10.0,0.5895,0.0,79.845,81.066,0.0,1.0,0.5895,
10.6667,0.7328,0.0,86.5,87.683,0.0,1.0,0.7328,
11.3333,0.8718,0.0,93.158,94.295,0.0,1.0,0.8718,
12.0,1.034,0.0,99.812,100.908,0.0,1.0,1.034,
12.6667,1.1898,0.0,106.47,107.529,0.0,1.0,1.1898,
13.3333,1.3555,0.0,113.125,114.158,0.0,1.0,1.3555,
14.0,1.5286,0.0,119.779,120.787,0.0,1.0,1.5286,
14.6667,1.7043,0.0,126.437,127.429,0.0,1.0,1.7043,
15.3333,1.954,0.0,133.091,134.07,0.0,1.0,1.954,
16.0,2.0932,0.0,139.745,140.72,0.0,1.0,2.0932,
16.6667,2.2755,0.0,146.404,147.35,0.0,1.0,2.2755,
17.3333,2.4678,0.0,153.058,153.979,0.0,1.0,2.4678,
18.0,2.659,0.0,159.716,160.629,0.0,1.0,2.659,
18.6667,2.869,0.0,166.37,167.275,0.0,1.0,2.869,
19.3333,3.0749,0.0,173.025,173.92,0.0,1.0,3.0749,
20.0,3.2913,0.0,179.683,180.558,0.0,1.0,3.2913,
20.6667,3.5151,0.0,186.337,187.212,0.0,1.0,3.5151,
21.3333,3.7432,0.0,192.991,193.866,0.0,1.0,3.7432,
22.0,3.9837,0.0,199.65,200.5,0.0,1.0,3.9837,
22.6667,4.2344,0.0,206.304,207.145,0.0,1.0,4.2344,
23.3333,4.4897,0.0,212.962,213.787,0.0,1.0,4.4897,
24.0,4.755,0.0,219.616,220.433,0.0,1.0,4.755,
24.6667,5.0298,0.0,226.27,227.079,0.0,1.0,5.0298,
25.3333,5.3565,0.0,232.929,233.737,0.0,1.0,5.3565,
26.0,5.6502,0.0,239.583,240.387,0.0,1.0,5.6502,
26.6667,5.95,0.0,246.237,247.041,0.0,1.0,5.95,
27.3333,6.2597,0.0,252.895,253.691,0.0,1.0,6.2597,
28.0,6.5802,0.0,259.55,260.333,0.0,1.0,6.5802,
28.6667,6.8833,0.0,266.208,266.975,0.0,1.0,6.8833,
29.3333,7.2409,0.0,272.862,273.629,0.0,1.0,7.2409,
30.0,7.5969,0.0,279.516,280.279,0.0,1.0,7.5969,
30.6667,7.9665,0.0,286.175,286.925,0.0,1.0,7.9665,
31.3333,8.3495,0.0,292.829,293.587,0.0,1.0,8.3495,
32.0,8.7455,0.0,299.483,300.25,0.0,1.0,8.7455,
32.6667,9.1542,0.0,306.141,306.904,0.0,1.0,9.1542,
33.3333,9.5966,0.0,312.795,313.562,0.0,1.0,9.5966,
34.0,10.0746,0.0,319.454,320.208,0.0,1.0,10.0746,
34.6667,10.6177,0.0,326.108,326.858,0.0,1.0,10.6177,
35.3333,11.2564,0.0,332.762,333.5,0.0,1.0,11.2564,
36.0,11.8402,0.0,339.42,340.154,0.0,1.0,11.8402,
36.6667,11.8439,0.0,346.075,346.812,0.0,1.0,11.8439,
37.3333,12.2623,0.0,352.729,353.47,0.0,1.0,12.2623,
38.0,12.7606,0.0,359.387,360.133,0.0,1.0,12.7606,
38.6667,13.2679,0.0,366.041,366.779,0.0,1.0,13.2679,
39.3333,13.7918,0.0,372.7,373.425,0.0,1.0,13.7918,
40.0,14.3387,0.0,379.354,380.079,0.0,1.0,14.3387,
40.2443,14.3969,0.0,378.195,379.391,0.0,1.0,14.3969,
40.4443,14.1005,0.0,376.195,377.4,0.0,1.0,14.1005,
40.6443,13.9181,0.0,374.2,375.408,0.0,1.0,13.9181,
40.8443,13.7393,0.0,372.204,373.412,0.0,1.0,13.7393,
41.0443,13.5643,0.0,370.208,371.425,0.0,1.0,13.5643,
41.2443,13.3944,0.0,368.212,369.429,0.0,1.0,13.3944,
41.4443,13.2242,0.0,366.212,367.437,0.0,1.0,13.2242,
41.6443,13.0574,0.0,364.216,365.441,0.0,1.0,13.0574,
41.8443,12.8973,0.0,362.22,363.45,0.0,1.0,12.8973,
42.0443,12.7335,0.0,360.225,361.462,0.0,1.0,12.7335,
42.2443,12.5753,0.0,358.225,359.466,0.0,1.0,12.5753,
42.4443,12.4169,0.0,356.229,357.47,0.0,1.0,12.4169,
42.6443,12.2629,0.0,354.233,355.47,0.0,1.0,12.2629,
42.8443,12.1105,0.0,352.237,353.475,0.0,1.0,12.1105,
43.0443,11.9579,0.0,350.241,351.479,0.0,1.0,11.9579,
43.2443,11.8043,0.0,348.241,349.483,0.0,1.0,11.8043,
43.4443,11.6569,0.0,346.245,347.487,0.0,1.0,11.6569,
43.6443,11.5064,0.0,344.25,345.491,0.0,1.0,11.5064,
43.8443,11.3575,0.0,342.254,343.491,0.0,1.0,11.3575,
44.0443,11.2095,0.0,340.258,341.504,0.0,1.0,11.2095,
44.2443,11.0616,0.0,338.258,339.508,0.0,1.0,11.0616,
44.4443,10.9208,0.0,336.262,337.508,0.0,1.0,10.9208,
44.6443,10.7744,0.0,334.266,335.512,0.0,1.0,10.7744,
44.8443,10.632,0.0,332.27,333.525,0.0,1.0,10.632,
45.0443,10.4899,0.0,330.27,331.537,0.0,1.0,10.4899,
45.2443,10.3513,0.0,328.275,329.537,0.0,1.0,10.3513,
45.4443,10.2145,0.0,326.279,327.55,0.0,1.0,10.2145,
45.6443,10.0756,0.0,324.283,325.55,0.0,1.0,10.0756,
45.8443,9.9425,0.0,322.287,323.562,0.0,1.0,9.9425,
46.0443,9.8074,0.0,320.287,321.575,0.0,1.0,9.8074,
46.2443,9.674,0.0,318.291,319.575,0.0,1.0,9.674,
46.4443,9.5456,0.0,316.295,317.583,0.0,1.0,9.5456,
46.6443,9.4239,0.0,314.3,315.591,0.0,1.0,9.4239,
46.8443,9.2876,0.0,312.304,313.604,0.0,1.0,9.2876,
47.0443,9.1645,0.0,310.304,311.6,0.0,1.0,9.1645,
47.2443,9.0396,0.0,308.308,309.608,0.0,1.0,9.0396,
47.4443,8.9187,0.0,306.312,307.612,0.0,1.0,8.9187,
47.6443,8.7911,0.0,304.316,305.62,0.0,1.0,8.7911,
47.8443,8.6455,0.0,302.316,303.629,0.0,1.0,8.6455,
48.0443,8.3644,0.0,300.32,301.633,0.0,1.0,8.3644,
48.2443,7.4987,0.0,298.325,299.637,0.0,1.0,7.4987,
48.4443,5.8513,0.0,296.329,297.641,0.0,1.0,5.8513,
48.6443,7.1522,0.0,294.333,295.641,0.0,1.0,7.1522,
48.8443,7.7975,0.0,292.333,293.654,0.0,1.0,7.7975,
49.0443,7.827,0.0,290.337,291.65,0.0,1.0,7.827,
49.2443,7.7739,0.0,288.341,289.658,0.0,1.0,7.7739,
49.4443,7.7004,0.0,286.345,287.654,0.0,1.0,7.7004,
49.6443,7.6185,0.0,284.35,285.662,0.0,1.0,7.6185,
49.8443,7.533,0.0,282.35,283.67,0.0,1.0,7.533,
50.0443,7.4426,0.0,280.354,281.679,0.0,1.0,7.4426,
50.2443,7.3532,0.0,278.358,279.683,0.0,1.0,7.3532,
50.4443,7.2659,0.0,276.362,277.687,0.0,1.0,7.2659,
50.6443,7.1753,0.0,274.366,275.691,0.0,1.0,7.1753,
50.8443,7.0852,0.0,272.366,273.695,0.0,1.0,7.0852,
51.0443,6.9941,0.0,270.37,271.712,0.0,1.0,6.9941,
51.2443,6.9029,0.0,268.375,269.712,0.0,1.0,6.9029,
51.4443,6.8121,0.0,266.379,267.72,0.0,1.0,6.8121,
51.6443,6.7236,0.0,264.379,265.725,0.0,1.0,6.7236,
51.8443,6.6368,0.0,262.383,263.737,0.0,1.0,6.6368,
52.0443,6.5466,0.0,260.387,261.741,0.0,1.0,6.5466,
52.2443,6.4597,0.0,258.391,259.75,0.0,1.0,6.4597,
52.4443,6.3716,0.0,256.395,257.758,0.0,1.0,6.3716,
52.6443,6.2869,0.0,254.395,255.77,0.0,1.0,6.2869,
52.8443,6.2018,0.0,252.4,253.787,0.0,1.0,6.2018,
53.0443,6.1169,0.0,250.404,251.795,0.0,1.0,6.1169,
53.2443,6.0341,0.0,248.408,249.804,0.0,1.0,6.0341,
53.4443,5.9531,0.0,246.412,247.808,0.0,1.0,5.9531,
53.6443,5.8674,0.0,244.412,245.816,0.0,1.0,5.8674,
53.8443,5.7868,0.0,242.416,243.825,0.0,1.0,5.7868,
54.0443,5.7078,0.0,240.42,241.829,0.0,1.0,5.7078,
54.2443,5.626,0.0,238.425,239.825,0.0,1.0,5.626,
54.4443,5.5468,0.0,236.425,237.829,0.0,1.0,5.5468,
54.6443,5.4698,0.0,234.429,235.841,0.0,1.0,5.4698,
54.8443,5.3911,0.0,232.433,233.845,0.0,1.0,5.3911,
55.0443,5.3135,0.0,230.437,231.854,0.0,1.0,5.3135,
55.2443,5.2377,0.0,228.441,229.854,0.0,1.0,5.2377,
55.4443,5.1616,0.0,226.441,227.866,0.0,1.0,5.1616,
55.6443,5.0876,0.0,224.445,225.87,0.0,1.0,5.0876,
55.8443,5.0116,0.0,222.45,223.883,0.0,1.0,5.0116,
56.0443,4.9386,0.0,220.454,221.887,0.0,1.0,4.9386,
56.2443,4.8645,0.0,218.458,219.891,0.0,1.0,4.8645,
56.4443,4.7933,0.0,216.458,217.904,0.0,1.0,4.7933,
56.6443,4.7206,0.0,214.462,215.912,0.0,1.0,4.7206,
56.8443,4.6494,0.0,212.466,213.92,0.0,1.0,4.6494,
57.0443,4.5798,0.0,210.47,211.92,0.0,1.0,4.5798,
57.2443,4.5112,0.0,208.47,209.937,0.0,1.0,4.5112,
57.4443,4.4411,0.0,206.475,207.945,0.0,1.0,4.4411,
57.6443,4.3746,0.0,204.479,205.962,0.0,1.0,4.3746,
57.8443,4.3077,0.0,202.483,203.966,0.0,1.0,4.3077,
58.0443,4.2412,0.0,200.487,201.979,0.0,1.0,4.2412,
58.2443,4.1747,0.0,198.487,199.987,0.0,1.0,4.1747,
58.4443,4.1098,0.0,196.491,198.004,0.0,1.0,4.1098,
58.6443,4.0417,0.0,194.495,196.012,0.0,1.0,4.0417,
58.8443,3.9754,0.0,192.5,194.025,0.0,1.0,3.9754,
59.0443,3.9104,0.0,190.504,192.037,0.0,1.0,3.9104,
59.2443,3.8464,0.0,188.504,190.037,0.0,1.0,3.8464,
59.4443,3.7813,0.0,186.508,188.045,0.0,1.0,3.7813,
59.6443,3.7196,0.0,184.512,186.054,0.0,1.0,3.7196,
59.8443,3.656,0.0,182.516,184.058,0.0,1.0,3.656,
60.0443,3.5934,0.0,180.52,182.066,0.0,1.0,3.5934,
60.2443,3.5328,0.0,178.52,180.075,0.0,1.0,3.5328,
60.4443,3.4728,0.0,176.525,178.083,0.0,1.0,3.4728,
60.6443,3.4117,0.0,174.529,176.1,0.0,1.0,3.4117,
60.8443,3.3535,0.0,172.533,174.108,0.0,1.0,3.3535,
61.0443,3.2936,0.0,170.533,172.116,0.0,1.0,3.2936,
61.2443,3.2377,0.0,168.537,170.129,0.0,1.0,3.2377,
61.4443,3.1784,0.0,166.541,168.133,0.0,1.0,3.1784,
61.6443,3.1217,0.0,164.545,166.145,0.0,1.0,3.1217,
61.8443,3.067,0.0,162.55,164.15,0.0,1.0,3.067,
62.0443,3.0127,0.0,160.55,162.166,0.0,1.0,3.0127,
62.2443,2.9598,0.0,158.554,160.17,0.0,1.0,2.9598,
62.4443,2.9071,0.0,156.558,158.187,0.0,1.0,2.9071,
62.6443,2.8558,0.0,154.562,156.195,0.0,1.0,2.8558,
62.8443,2.8041,0.0,152.566,154.208,0.0,1.0,2.8041,
63.0443,2.7539,0.0,150.566,152.22,0.0,1.0,2.7539,
63.2443,2.7032,0.0,148.57,150.237,0.0,1.0,2.7032,
63.4443,2.6558,0.0,146.575,148.254,0.0,1.0,2.6558,
63.6443,2.6075,0.0,144.579,146.262,0.0,1.0,2.6075,
63.8443,2.5604,0.0,142.579,144.279,0.0,1.0,2.5604,
64.0443,2.5135,0.0,140.583,142.295,0.0,1.0,2.5135,
64.2443,2.469,0.0,138.587,140.312,0.0,1.0,2.469,
64.4443,2.4245,0.0,136.591,138.325,0.0,1.0,2.4245,
64.6443,2.3797,0.0,134.595,136.333,0.0,1.0,2.3797,
64.8443,2.3363,0.0,132.595,134.345,0.0,1.0,2.3363,
65.0443,2.2912,0.0,130.6,132.354,0.0,1.0,2.2912,
65.2443,2.2486,0.0,128.604,130.37,0.0,1.0,2.2486,
65.4443,2.205,0.0,126.608,128.383,0.0,1.0,2.205,
65.6443,2.1614,0.0,124.612,126.395,0.0,1.0,2.1614,
65.8443,2.1172,0.0,122.612,124.408,0.0,1.0,2.1172,
66.0443,2.0752,0.0,120.616,122.429,0.0,1.0,2.0752,
66.2443,2.037,0.0,118.62,120.45,0.0,1.0,2.037,
66.4443,1.9977,0.0,116.625,118.462,0.0,1.0,1.9977,
66.6443,1.9572,0.0,114.625,116.483,0.0,1.0,1.9572,
66.8443,1.9199,0.0,112.629,114.5,0.0,1.0,1.9199,
67.0443,1.8828,0.0,110.633,112.52,0.0,1.0,1.8828,
67.2443,1.8475,0.0,108.637,110.541,0.0,1.0,1.8475,
67.4443,1.8122,0.0,106.641,108.566,0.0,1.0,1.8122,
67.6443,1.7781,0.0,104.641,106.587,0.0,1.0,1.7781,
67.8443,1.7464,0.0,102.645,104.612,0.0,1.0,1.7464,
68.0443,1.7179,0.0,100.65,102.633,0.0,1.0,1.7179,
68.2443,1.6864,0.0,98.654,100.658,0.0,1.0,1.6864,
68.4443,1.6541,0.0,96.658,98.683,0.0,1.0,1.6541,
68.6443,1.6269,0.0,94.658,96.716,0.0,1.0,1.6269,
68.8443,1.5987,0.0,92.662,94.741,0.0,1.0,1.5987,
69.0443,1.5763,0.0,90.666,92.775,0.0,1.0,1.5763,
69.2443,1.5576,0.0,88.67,90.808,0.0,1.0,1.5576,
69.4443,1.5366,0.0,86.67,88.85,0.0,1.0,1.5366,
69.6443,1.5246,0.0,84.675,86.887,0.0,1.0,1.5246,
69.8443,1.5174,0.0,82.679,84.92,0.0,1.0,1.5174,
70.0443,1.5094,0.0,80.683,82.962,0.0,1.0,1.5094,
70.2443,1.5097,0.0,78.687,81.0,0.0,1.0,1.5097,
70.4443,1.5185,0.0,76.687,79.041,0.0,1.0,1.5185,
70.6443,1.5356,0.0,74.691,77.095,0.0,1.0,1.5356,
70.8443,1.5678,0.0,72.695,75.145,0.0,1.0,1.5678,
71.0443,1.6228,0.0,70.7,73.204,0.0,1.0,1.6228,
71.2443,1.713,0.0,68.704,71.266,0.0,1.0,1.713,
71.4443,1.4621,0.0,66.704,69.379,0.0,1.0,1.4621,
71.6443,1.2212,0.0,64.708,67.733,0.0,1.0,1.2212,
71.8443,1.113,0.0,62.712,66.325,0.0,1.0,1.113,
72.0443,1.0265,0.0,60.716,65.133,0.0,1.0,1.0265,
72.2443,0.9451,0.0,58.72,64.104,0.0,1.0,0.9451,
72.4443,0.8684,0.0,56.72,63.233,0.0,1.0,0.8684,
72.6443,0.7939,0.0,54.725,62.479,0.0,1.0,0.7939,
72.8443,0.7214,0.0,52.729,61.845,0.0,1.0,0.7214,
73.0443,0.6509,0.0,50.733,61.291,0.0,1.0,0.6509,
73.2443,0.5824,0.0,48.733,60.825,0.0,1.0,0.5824,
73.4443,0.5153,0.0,46.737,60.412,0.0,1.0,0.5153,
73.6443,0.4483,0.0,44.741,60.07,0.0,1.0,0.4483,
73.8443,0.3828,0.0,42.745,59.775,0.0,1.0,0.3828,
74.0443,0.3177,0.0,40.75,59.52,0.0,1.0,0.3177,
74.2443,0.2551,0.0,38.75,59.3,0.0,1.0,0.2551,
74.4443,0.1922,0.0,36.754,59.112,0.0,1.0,0.1922,
74.6443,0.1292,0.0,34.758,58.95,0.0,1.0,0.1292,
74.8443,0.0667,0.0,32.762,58.8,0.0,1.0,0.0667,
75.0443,0.0049,0.0,30.766,58.679,0.0,1.0,0.0049,
75.5325,-0.0213,0.0,30.0,58.445,0.0,1.0,-0.0213,
76.1992,-0.0232,0.0,30.0,58.225,0.0,1.0,-0.0232,
76.8658,-0.0235,0.0,30.0,58.075,0.0,1.0,-0.0235,
77.5325,-0.0231,0.0,30.0,57.975,0.0,1.0,-0.0231,
78.1992,-0.0219,0.0,30.0,57.895,0.0,1.0,-0.0219,
78.8658,-0.0202,0.0,30.0,57.837,0.0,1.0,-0.0202,
79.5325,-0.0183,0.0,30.0,57.787,0.0,1.0,-0.0183,
80.1502,-0.0108,0.0,30.204,57.745,0.0,1.0,-0.0108,
80.3502,0.0492,0.0,32.204,57.729,0.0,1.0,0.0492,
80.5502,0.1097,0.0,34.2,57.712,0.0,1.0,0.1097,
80.7502,0.1707,0.0,36.195,57.704,0.0,1.0,0.1707,
80.9502,0.2311,0.0,38.191,57.691,0.0,1.0,0.2311,
81.1502,0.2921,0.0,40.187,57.675,0.0,1.0,0.2921,
81.3502,0.3529,0.0,42.187,57.666,0.0,1.0,0.3529,
81.5502,0.4131,0.0,44.183,57.65,0.0,1.0,0.4131,
81.7502,0.4732,0.0,46.179,57.641,0.0,1.0,0.4732,
81.9502,0.5341,0.0,48.175,57.633,0.0,1.0,0.5341,
82.1502,0.5943,0.0,50.17,57.616,0.0,1.0,0.5943,
82.3502,0.6551,0.0,52.17,57.604,0.0,1.0,0.6551,
82.5502,0.7154,0.0,54.166,57.595,0.0,1.0,0.7154,
82.7502,-2.1728,0.0,56.162,57.833,0.0,1.0,-2.1728,
82.9502,-0.2575,0.0,58.158,59.654,0.0,1.0,-0.2575,
83.1502,0.0877,0.0,60.158,61.616,0.0,1.0,0.0877,
83.3502,0.1526,0.0,62.154,63.587,0.0,1.0,0.1526,
83.5502,0.2003,0.0,64.15,65.558,0.0,1.0,0.2003,
83.7502,0.2464,0.0,66.145,67.537,0.0,1.0,0.2464,
83.9502,0.2925,0.0,68.141,69.512,0.0,1.0,0.2925,
84.1502,0.3388,0.0,70.141,71.487,0.0,1.0,0.3388,
84.3502,0.3845,0.0,72.137,73.475,0.0,1.0,0.3845,
84.5502,0.4291,0.0,74.133,75.445,0.0,1.0,0.4291,
84.7502,0.4752,0.0,76.129,77.433,0.0,1.0,0.4752,
84.9502,0.5201,0.0,78.125,79.412,0.0,1.0,0.5201,
85.1502,0.5668,0.0,80.125,81.4,0.0,1.0,0.5668,
85.3502,0.6102,0.0,82.12,83.387,0.0,1.0,0.6102,
85.5502,0.6497,0.0,84.116,85.37,0.0,1.0,0.6497,
85.7502,0.7003,0.0,86.112,87.354,0.0,1.0,0.7003,
85.9502,0.7464,0.0,88.112,89.329,0.0,1.0,0.7464,
86.1502,0.7899,0.0,90.108,91.32,0.0,1.0,0.7899,
86.3502,0.8367,0.0,92.104,93.3,0.0,1.0,0.8367,
86.5502,0.8842,0.0,94.1,95.283,0.0,1.0,0.8842,
86.7502,0.9288,0.0,96.095,97.27,0.0,1.0,0.9288,
86.9502,0.9836,0.0,98.095,99.245,0.0,1.0,0.9836,
87.1502,1.0312,0.0,100.091,101.241,0.0,1.0,1.0312,
87.3502,1.0803,0.0,102.087,103.22,0.0,1.0,1.0803,
87.5502,1.1334,0.0,104.083,105.208,0.0,1.0,1.1334,
87.7502,1.1831,0.0,106.079,107.191,0.0,1.0,1.1831,
87.9502,1.2269,0.0,108.079,109.183,0.0,1.0,1.2269,
88.1502,1.2829,0.0,110.075,111.166,0.0,1.0,1.2829,
88.3502,1.337,0.0,112.07,113.158,0.0,1.0,1.337,
88.5502,1.3813,0.0,114.066,115.141,0.0,1.0,1.3813,
88.7502,1.4411,0.0,116.066,117.133,0.0,1.0,1.4411,
88.9502,1.4948,0.0,118.062,119.125,0.0,1.0,1.4948,
89.1502,1.5468,0.0,120.058,121.112,0.0,1.0,1.5468,
89.3502,1.5997,0.0,122.054,123.104,0.0,1.0,1.5997,
89.5502,1.6523,0.0,124.05,125.091,0.0,1.0,1.6523,
89.7502,1.708,0.0,126.05,127.083,0.0,1.0,1.708,
89.9502,1.7583,0.0,128.045,129.075,0.0,1.0,1.7583,
90.1502,1.8194,0.0,130.041,131.07,0.0,1.0,1.8194,
90.3502,1.8776,0.0,132.037,133.058,0.0,1.0,1.8776,
90.5502,1.9319,0.0,134.033,135.054,0.0,1.0,1.9319,
90.7502,1.9912,0.0,136.033,137.05,0.0,1.0,1.9912,
90.9502,2.0474,0.0,138.029,139.045,0.0,1.0,2.0474,
91.1502,2.1114,0.0,140.025,141.037,0.0,1.0,2.1114,
91.3502,2.1727,0.0,142.02,143.029,0.0,1.0,2.1727,
91.5502,2.2369,0.0,144.016,145.012,0.0,1.0,2.2369,
91.7502,2.2976,0.0,146.016,147.0,0.0,1.0,2.2976,
91.9502,2.3626,0.0,148.012,148.995,0.0,1.0,2.3626,
92.1502,2.4287,0.0,150.008,150.979,0.0,1.0,2.4287,
92.3502,2.4902,0.0,152.004,152.97,0.0,1.0,2.4902,
92.5502,2.5516,0.0,154.004,154.962,0.0,1.0,2.5516,
92.7502,2.6173,0.0,156.0,156.954,0.0,1.0,2.6173,
92.9502,2.6797,0.0,157.995,158.95,0.0,1.0,2.6797,
93.1502,2.7315,0.0,159.991,160.941,0.0,1.0,2.7315,
93.3502,2.8058,0.0,161.987,162.937,0.0,1.0,2.8058,
93.5502,2.8704,0.0,163.987,164.929,0.0,1.0,2.8704,
93.7502,2.9392,0.0,165.983,166.925,0.0,1.0,2.9392,
93.9502,3.0062,0.0,167.979,168.92,0.0,1.0,3.0062,
94.1502,3.0727,0.0,169.975,170.912,0.0,1.0,3.0727,
94.3502,3.1421,0.0,171.97,172.904,0.0,1.0,3.1421,
94.5502,3.2099,0.0,173.97,174.9,0.0,1.0,3.2099,
94.7502,3.2742,0.0,175.966,176.887,0.0,1.0,3.2742,
94.9502,3.3475,0.0,177.962,178.883,0.0,1.0,3.3475,
95.1502,3.4166,0.0,179.958,180.875,0.0,1.0,3.4166,
95.3502,3.4891,0.0,181.958,182.87,0.0,1.0,3.4891,
95.5502,3.5627,0.0,183.954,184.866,0.0,1.0,3.5627,
95.7502,3.636,0.0,185.95,186.866,0.0,1.0,3.636,
95.9502,3.7091,0.0,187.945,188.862,0.0,1.0,3.7091,
96.1502,3.7844,0.0,189.941,190.845,0.0,1.0,3.7844,
96.3502,3.8579,0.0,191.941,192.845,0.0,1.0,3.8579,
96.5502,3.9308,0.0,193.937,194.841,0.0,1.0,3.9308,
96.7502,4.0119,0.0,195.933,196.837,0.0,1.0,4.0119,
96.9502,4.0882,0.0,197.929,198.829,0.0,1.0,4.0882,
97.1502,4.1649,0.0,199.925,200.816,0.0,1.0,4.1649,
97.3502,4.2447,0.0,201.925,202.804,0.0,1.0,4.2447,
97.5502,4.3245,0.0,203.92,204.795,0.0,1.0,4.3245,
97.7502,4.4049,0.0,205.916,206.795,0.0,1.0,4.4049,
97.9502,4.4851,0.0,207.912,208.783,0.0,1.0,4.4851,
98.1502,4.5654,0.0,209.912,210.779,0.0,1.0,4.5654,
98.3502,4.6459,0.0,211.908,212.77,0.0,1.0,4.6459,
98.5502,4.7327,0.0,213.904,214.762,0.0,1.0,4.7327,
98.7502,4.8167,0.0,215.9,216.758,0.0,1.0,4.8167,
98.9502,4.9023,0.0,217.895,218.754,0.0,1.0,4.9023,
99.1502,4.99,0.0,219.895,220.741,0.0,1.0,4.99,
99.3502,5.0758,0.0,221.891,222.737,0.0,1.0,5.0758,
99.5502,5.1644,0.0,223.887,224.733,0.0,1.0,5.1644,
99.7502,5.2525,0.0,225.883,226.729,0.0,1.0,5.2525,
99.9502,5.3434,0.0,227.879,228.72,0.0,1.0,5.3434,
100.15,5.435,0.0,229.879,230.716,0.0,1.0,5.435,
100.35,5.5279,0.0,231.875,232.716,0.0,1.0,5.5279,
100.55,5.6219,0.0,233.87,234.708,0.0,1.0,5.6219,
100.75,5.7161,0.0,235.866,236.708,0.0,1.0,5.7161,
100.95,5.8098,0.0,237.862,238.7,0.0,1.0,5.8098,
101.15,5.9059,0.0,239.862,240.704,0.0,1.0,5.9059,
101.35,6.0003,0.0,241.858,242.7,0.0,1.0,6.0003,
101.55,6.0991,0.0,243.854,244.7,0.0,1.0,6.0991,
101.75,6.1958,0.0,245.85,246.691,0.0,1.0,6.1958,
101.95,6.2918,0.0,247.85,248.687,0.0,1.0,6.2918,
102.15,6.3911,0.0,249.845,250.683,0.0,1.0,6.3911,
102.35,6.4876,0.0,251.841,252.67,0.0,1.0,6.4876,
102.55,6.5898,0.0,253.837,254.666,0.0,1.0,6.5898,
102.75,6.6876,0.0,255.833,256.654,0.0,1.0,6.6876,
102.95,6.7916,0.0,257.833,258.645,0.0,1.0,6.7916,
103.15,6.8922,0.0,259.829,260.641,0.0,1.0,6.8922,
103.35,6.9979,0.0,261.825,262.633,0.0,1.0,6.9979,
103.55,7.099,0.0,263.82,264.625,0.0,1.0,7.099,
103.75,7.2034,0.0,265.816,266.625,0.0,1.0,7.2034,
103.95,7.3107,0.0,267.816,268.612,0.0,1.0,7.3107,
104.15,7.4157,0.0,269.812,270.612,0.0,1.0,7.4157,
104.35,7.5214,0.0,271.808,272.608,0.0,1.0,7.5214,
104.55,7.6286,0.0,273.804,274.595,0.0,1.0,7.6286,
104.75,7.7372,0.0,275.804,276.595,0.0,1.0,7.7372,
104.95,7.8466,0.0,277.8,278.591,0.0,1.0,7.8466,
105.15,7.9567,0.0,279.795,280.587,0.0,1.0,7.9567,
105.35,8.0688,0.0,281.791,282.583,0.0,1.0,8.0688,
105.55,8.1816,0.0,283.787,284.579,0.0,1.0,8.1816,
105.75,8.296,0.0,285.787,286.57,0.0,1.0,8.296,
105.95,8.4108,0.0,287.783,288.57,0.0,1.0,8.4108,
106.15,8.5277,0.0,289.779,290.57,0.0,1.0,8.5277,
106.35,8.6477,0.0,291.775,292.566,0.0,1.0,8.6477,
106.55,8.7651,0.0,293.77,294.562,0.0,1.0,8.7651,
106.75,8.881,0.0,295.77,296.558,0.0,1.0,8.881,
106.95,9.0034,0.0,297.766,298.558,0.0,1.0,9.0034,
107.15,9.1201,0.0,299.762,300.554,0.0,1.0,9.1201,
107.35,9.2362,0.0,301.758,302.554,0.0,1.0,9.2362,
107.55,9.3545,0.0,303.758,304.554,0.0,1.0,9.3545,
107.75,9.4764,0.0,305.754,306.545,0.0,1.0,9.4764,
107.95,9.6,0.0,307.75,308.545,0.0,1.0,9.6,
108.15,9.727,0.0,309.745,310.537,0.0,1.0,9.727,
108.35,9.854,0.0,311.741,312.537,0.0,1.0,9.854,
108.55,9.9882,0.0,313.741,314.533,0.0,1.0,9.9882,
108.75,10.121,0.0,315.737,316.529,0.0,1.0,10.121,
108.95,10.2564,0.0,317.733,318.525,0.0,1.0,10.2564,
109.15,10.3974,0.0,319.729,320.52,0.0,1.0,10.3974,
109.35,10.5405,0.0,321.725,322.512,0.0,1.0,10.5405,
109.55,10.6884,0.0,323.725,324.504,0.0,1.0,10.6884,
109.75,10.8459,0.0,325.72,326.5,0.0,1.0,10.8459,
109.95,11.0095,0.0,327.716,328.491,0.0,1.0,11.0095,
110.15,11.1842,0.0,329.712,330.487,0.0,1.0,11.1842,
110.35,11.3796,0.0,331.708,332.479,0.0,1.0,11.3796,
110.55,11.6031,0.0,333.708,334.47,0.0,1.0,11.6031,
110.75,11.8576,0.0,335.704,336.466,0.0,1.0,11.8576,
110.95,12.1427,0.0,337.7,338.462,0.0,1.0,12.1427,
111.15,12.2785,0.0,339.695,340.458,0.0,1.0,12.2785,
111.35,12.0737,0.0,341.695,342.458,0.0,1.0,12.0737,
111.55,11.9603,0.0,343.691,344.45,0.0,1.0,11.9603,
111.75,12.0376,0.0,345.687,346.45,0.0,1.0,12.0376,
111.95,12.1597,0.0,347.683,348.45,0.0,1.0,12.1597,
112.15,12.2954,0.0,349.679,350.45,0.0,1.0,12.2954,
112.35,12.4424,0.0,351.679,352.445,0.0,1.0,12.4424,
112.55,12.5871,0.0,353.675,354.441,0.0,1.0,12.5871,
112.75,12.7325,0.0,355.67,356.441,0.0,1.0,12.7325,
112.95,12.8823,0.0,357.666,358.441,0.0,1.0,12.8823,
113.15,13.0344,0.0,359.662,360.441,0.0,1.0,13.0344,
113.35,13.1852,0.0,361.662,362.433,0.0,1.0,13.1852,
113.55,13.3377,0.0,363.658,364.429,0.0,1.0,13.3377,
113.75,13.4941,0.0,365.654,366.416,0.0,1.0,13.4941,
113.95,13.6495,0.0,367.65,368.412,0.0,1.0,13.6495,
114.15,13.8074,0.0,369.65,370.408,0.0,1.0,13.8074,
114.35,13.949,0.0,371.645,372.404,0.0,1.0,13.949,
114.55,14.1111,0.0,373.641,374.395,0.0,1.0,14.1111,
114.75,14.277,0.0,375.637,376.391,0.0,1.0,14.277,
114.95,14.4402,0.0,377.633,378.387,0.0,1.0,14.4402,
115.15,14.6064,0.0,379.633,380.387,0.0,1.0,14.6064,
115.35,14.7311,0.0,378.366,379.591,0.0,1.0,14.7311,
115.55,14.3575,0.0,376.37,377.604,0.0,1.0,14.3575,
115.75,14.1747,0.0,374.375,375.604,0.0,1.0,14.1747,
115.95,14.0004,0.0,372.379,373.612,0.0,1.0,14.0004,
116.15,13.8229,0.0,370.379,371.62,0.0,1.0,13.8229,
116.35,13.652,0.0,368.383,369.633,0.0,1.0,13.652,
116.55,13.4847,0.0,366.387,367.637,0.0,1.0,13.4847,
116.75,13.3198,0.0,364.391,365.641,0.0,1.0,13.3198,
116.95,13.156,0.0,362.391,363.654,0.0,1.0,13.156,
117.15,12.9957,0.0,360.395,361.662,0.0,1.0,12.9957,
117.35,12.838,0.0,358.4,359.675,0.0,1.0,12.838,
117.55,12.6804,0.0,356.404,357.67,0.0,1.0,12.6804,
117.75,12.5273,0.0,354.408,355.67,0.0,1.0,12.5273,
117.95,12.3739,0.0,352.408,353.679,0.0,1.0,12.3739,
118.15,12.2232,0.0,350.412,351.687,0.0,1.0,12.2232,
118.35,12.0738,0.0,348.416,349.687,0.0,1.0,12.0738,
118.55,11.9266,0.0,346.42,347.695,0.0,1.0,11.9266,
118.75,11.7809,0.0,344.425,345.691,0.0,1.0,11.7809,
118.95,11.6364,0.0,342.425,343.695,0.0,1.0,11.6364,
119.15,11.4932,0.0,340.429,341.704,0.0,1.0,11.4932,
119.35,11.3522,0.0,338.433,339.704,0.0,1.0,11.3522,
119.55,11.2138,0.0,336.437,337.712,0.0,1.0,11.2138,
119.75,11.0746,0.0,334.441,335.716,0.0,1.0,11.0746,
119.95,10.9382,0.0,332.441,333.725,0.0,1.0,10.9382,
120.15,10.8061,0.0,330.445,331.729,0.0,1.0,10.8061,
120.35,10.6715,0.0,328.45,329.745,0.0,1.0,10.6715,
120.55,10.5417,0.0,326.454,327.745,0.0,1.0,10.5417,
120.75,10.4108,0.0,324.454,325.754,0.0,1.0,10.4108,
120.95,10.2834,0.0,322.458,323.766,0.0,1.0,10.2834,
121.15,10.1548,0.0,320.462,321.775,0.0,1.0,10.1548,
121.35,10.0296,0.0,318.466,319.779,0.0,1.0,10.0296,
121.55,9.904,0.0,316.47,317.787,0.0,1.0,9.904,
121.75,9.781,0.0,314.47,315.791,0.0,1.0,9.781,
121.95,9.6585,0.0,312.475,313.795,0.0,1.0,9.6585,
122.15,9.5345,0.0,310.479,311.804,0.0,1.0,9.5345,
122.35,9.4155,0.0,308.483,309.808,0.0,1.0,9.4155,
122.55,9.2961,0.0,306.487,307.816,0.0,1.0,9.2961,
122.75,9.1731,0.0,304.487,305.82,0.0,1.0,9.1731,
122.95,9.0319,0.0,302.491,303.833,0.0,1.0,9.0319,
123.15,8.7747,0.0,300.495,301.837,0.0,1.0,8.7747,
123.35,7.983,0.0,298.5,299.841,0.0,1.0,7.983,
123.55,6.4883,0.0,296.5,297.841,0.0,1.0,6.4883,
123.75,7.4121,0.0,294.504,295.845,0.0,1.0,7.4121,
123.95,8.1354,0.0,292.508,293.85,0.0,1.0,8.1354,
124.15,8.1862,0.0,290.512,291.854,0.0,1.0,8.1862,
124.35,8.1322,0.0,288.516,289.858,0.0,1.0,8.1322,
124.55,8.0567,0.0,286.516,287.858,0.0,1.0,8.0567,
124.75,7.9668,0.0,284.52,285.87,0.0,1.0,7.9668,
124.95,7.8744,0.0,282.525,283.87,0.0,1.0,7.8744,
125.15,7.7798,0.0,280.529,281.879,0.0,1.0,7.7798,
125.35,7.6842,0.0,278.533,279.883,0.0,1.0,7.6842,
125.55,7.5918,0.0,276.533,277.887,0.0,1.0,7.5918,
125.75,7.4944,0.0,274.537,275.891,0.0,1.0,7.4944,
125.95,7.3981,0.0,272.541,273.904,0.0,1.0,7.3981,
126.15,7.3024,0.0,270.545,271.908,0.0,1.0,7.3024,
126.35,7.2065,0.0,268.545,269.916,0.0,1.0,7.2065,
126.55,7.1096,0.0,266.55,267.92,0.0,1.0,7.1096,
126.75,7.0164,0.0,264.554,265.933,0.0,1.0,7.0164,
126.95,6.9225,0.0,262.558,263.933,0.0,1.0,6.9225,
127.15,6.83,0.0,260.562,261.945,0.0,1.0,6.83,
127.35,6.7383,0.0,258.562,259.954,0.0,1.0,6.7383,
127.55,6.6476,0.0,256.566,257.958,0.0,1.0,6.6476,
127.75,6.5573,0.0,254.57,255.975,0.0,1.0,6.5573,
127.95,6.4699,0.0,252.575,253.987,0.0,1.0,6.4699,
128.15,6.381,0.0,250.579,252.0,0.0,1.0,6.381,
128.35,6.2935,0.0,248.579,250.008,0.0,1.0,6.2935,
128.55,6.2073,0.0,246.583,248.016,0.0,1.0,6.2073,
128.75,6.1202,0.0,244.587,246.02,0.0,1.0,6.1202,
128.95,6.0354,0.0,242.591,244.029,0.0,1.0,6.0354,
129.15,5.9494,0.0,240.595,242.033,0.0,1.0,5.9494,
129.35,5.8646,0.0,238.595,240.033,0.0,1.0,5.8646,
129.55,5.7793,0.0,236.6,238.037,0.0,1.0,5.7793,
129.75,5.697,0.0,234.604,236.041,0.0,1.0,5.697,
129.95,5.6156,0.0,232.608,234.05,0.0,1.0,5.6156,
130.15,5.5327,0.0,230.608,232.054,0.0,1.0,5.5327,
130.35,5.4534,0.0,228.612,230.058,0.0,1.0,5.4534,
130.55,5.372,0.0,226.616,228.062,0.0,1.0,5.372,
130.75,5.2901,0.0,224.62,226.079,0.0,1.0,5.2901,
130.95,5.2097,0.0,222.625,224.079,0.0,1.0,5.2097,
131.15,5.1313,0.0,220.625,222.091,0.0,1.0,5.1313,
131.35,5.0513,0.0,218.629,220.1,0.0,1.0,5.0513,
131.55,4.9716,0.0,216.633,218.108,0.0,1.0,4.9716,
131.75,4.8927,0.0,214.637,216.116,0.0,1.0,4.8927,
131.95,4.8152,0.0,212.641,214.125,0.0,1.0,4.8152,
132.15,4.7384,0.0,210.641,212.129,0.0,1.0,4.7384,
132.35,4.6632,0.0,208.645,210.141,0.0,1.0,4.6632,
132.55,4.5875,0.0,206.65,208.154,0.0,1.0,4.5875,
132.75,4.5155,0.0,204.654,206.162,0.0,1.0,4.5155,
132.95,4.44,0.0,202.654,204.179,0.0,1.0,4.44,
133.15,4.3683,0.0,200.658,202.183,0.0,1.0,4.3683,
133.35,4.2973,0.0,198.662,200.195,0.0,1.0,4.2973,
133.55,4.2258,0.0,196.666,198.204,0.0,1.0,4.2258,
133.75,4.1561,0.0,194.67,196.22,0.0,1.0,4.1561,
133.95,4.087,0.0,192.67,194.233,0.0,1.0,4.087,
134.15,4.0184,0.0,190.675,192.233,0.0,1.0,4.0184,
134.35,3.9499,0.0,188.679,190.25,0.0,1.0,3.9499,
134.55,3.8836,0.0,186.683,188.25,0.0,1.0,3.8836,
134.75,3.8162,0.0,184.687,186.262,0.0,1.0,3.8162,
134.95,3.7509,0.0,182.687,184.266,0.0,1.0,3.7509,
135.15,3.6857,0.0,180.691,182.275,0.0,1.0,3.6857,
135.35,3.6213,0.0,178.695,180.283,0.0,1.0,3.6213,
135.55,3.5576,0.0,176.7,178.295,0.0,1.0,3.5576,
135.75,3.4942,0.0,174.7,176.304,0.0,1.0,3.4942,
135.95,3.432,0.0,172.704,174.316,0.0,1.0,3.432,
136.15,3.3713,0.0,170.708,172.325,0.0,1.0,3.3713,
136.35,3.3111,0.0,168.712,170.333,0.0,1.0,3.3111,
136.55,3.2496,0.0,166.716,168.345,0.0,1.0,3.2496,
136.75,3.1908,0.0,164.716,166.35,0.0,1.0,3.1908,
136.95,3.1328,0.0,162.72,164.362,0.0,1.0,3.1328,
137.15,3.0754,0.0,160.725,162.37,0.0,1.0,3.0754,
137.35,3.0186,0.0,158.729,160.383,0.0,1.0,3.0186,
137.55,2.9639,0.0,156.733,158.395,0.0,1.0,2.9639,
137.75,2.9096,0.0,154.733,156.408,0.0,1.0,2.9096,
137.95,2.8566,0.0,152.737,154.416,0.0,1.0,2.8566,
138.15,2.8029,0.0,150.741,152.429,0.0,1.0,2.8029,
138.35,2.7502,0.0,148.745,150.45,0.0,1.0,2.7502,
138.55,2.7001,0.0,146.75,148.462,0.0,1.0,2.7001,
138.75,2.6493,0.0,144.75,146.475,0.0,1.0,2.6493,
138.95,2.5991,0.0,142.754,144.487,0.0,1.0,2.5991,
139.15,2.5499,0.0,140.758,142.508,0.0,1.0,2.5499,
139.35,2.5023,0.0,138.762,140.52,0.0,1.0,2.5023,
139.55,2.4554,0.0,136.762,138.537,0.0,1.0,2.4554,
139.75,2.4084,0.0,134.766,136.55,0.0,1.0,2.4084,
139.95,2.3595,0.0,132.77,134.554,0.0,1.0,2.3595,
140.15,2.317,0.0,130.775,132.57,0.0,1.0,2.317,
140.35,2.2687,0.0,128.779,130.583,0.0,1.0,2.2687,
140.55,2.2233,0.0,126.779,128.6,0.0,1.0,2.2233,
140.75,2.1767,0.0,124.783,126.608,0.0,1.0,2.1767,
140.95,2.1328,0.0,122.787,124.629,0.0,1.0,2.1328,
141.15,2.0895,0.0,120.791,122.645,0.0,1.0,2.0895,
141.35,2.0461,0.0,118.795,120.666,0.0,1.0,2.0461,
141.55,2.0063,0.0,116.795,118.679,0.0,1.0,2.0063,
141.75,1.9637,0.0,114.8,116.7,0.0,1.0,1.9637,
141.95,1.9238,0.0,112.804,114.72,0.0,1.0,1.9238,
142.15,1.8859,0.0,110.808,112.741,0.0,1.0,1.8859,
142.35,1.8474,0.0,108.808,110.762,0.0,1.0,1.8474,
142.55,1.8118,0.0,106.812,108.779,0.0,1.0,1.8118,
142.75,1.7755,0.0,104.816,106.808,0.0,1.0,1.7755,
142.95,1.7403,0.0,102.82,104.833,0.0,1.0,1.7403,
143.15,1.709,0.0,100.825,102.854,0.0,1.0,1.709,
143.35,1.6798,0.0,98.825,100.891,0.0,1.0,1.6798,
143.55,1.6455,0.0,96.829,98.912,0.0,1.0,1.6455,
143.75,1.6182,0.0,94.833,96.937,0.0,1.0,1.6182,
143.95,1.5906,0.0,92.837,94.975,0.0,1.0,1.5906,
144.15,1.5704,0.0,90.841,93.004,0.0,1.0,1.5704,
144.35,1.5491,0.0,88.841,91.041,0.0,1.0,1.5491,
144.55,1.5278,0.0,86.845,89.075,0.0,1.0,1.5278,
144.75,1.5172,0.0,84.85,87.116,0.0,1.0,1.5172,
144.95,1.5093,0.0,82.854,85.166,0.0,1.0,1.5093,
145.15,1.5065,0.0,80.854,83.2,0.0,1.0,1.5065,
145.35,1.5113,0.0,78.858,81.241,0.0,1.0,1.5113,
145.55,1.5255,0.0,76.862,79.287,0.0,1.0,1.5255,
145.75,1.5531,0.0,74.866,77.341,0.0,1.0,1.5531,
145.95,1.6004,0.0,72.87,75.395,0.0,1.0,1.6004,
146.15,1.6719,0.0,70.87,73.462,0.0,1.0,1.6719,
146.35,1.6043,0.0,68.875,71.541,0.0,1.0,1.6043,
146.55,1.2562,0.0,66.879,69.82,0.0,1.0,1.2562,
146.75,1.1304,0.0,64.883,68.354,0.0,1.0,1.1304,
146.95,1.0393,0.0,62.887,67.1,0.0,1.0,1.0393,
147.15,0.9572,0.0,60.887,66.029,0.0,1.0,0.9572,
147.35,0.8784,0.0,58.891,65.116,0.0,1.0,0.8784,
147.55,0.8027,0.0,56.895,64.329,0.0,1.0,0.8027,
147.75,0.7295,0.0,54.9,63.662,0.0,1.0,0.7295,
147.95,0.6588,0.0,52.9,63.087,0.0,1.0,0.6588,
148.15,0.5881,0.0,50.904,62.595,0.0,1.0,0.5881,
148.35,0.5204,0.0,48.908,62.175,0.0,1.0,0.5204,
148.55,0.4538,0.0,46.912,61.82,0.0,1.0,0.4538,
148.75,0.3878,0.0,44.916,61.508,0.0,1.0,0.3878,
148.95,0.3229,0.0,42.916,61.237,0.0,1.0,0.3229,
149.15,0.2583,0.0,40.92,61.012,0.0,1.0,0.2583,
149.35,0.196,0.0,38.925,60.808,0.0,1.0,0.196,
149.55,0.1327,0.0,36.929,60.645,0.0,1.0,0.1327,
149.75,0.0702,0.0,34.933,60.487,0.0,1.0,0.0702,
149.95,0.0081,0.0,32.933,60.366,0.0,1.0,0.0081,
150.15,-0.0536,0.0,30.937,60.258,0.0,1.0,-0.0536,
150.5975,-0.0835,0.0,30.0,60.05,0.0,1.0,-0.0835,
151.264,-0.0846,0.0,30.0,59.845,0.0,1.0,-0.0846,
151.931,-0.0851,0.0,30.0,59.7,0.0,1.0,-0.0851,
152.5975,-0.084,0.0,30.0,59.604,0.0,1.0,-0.084,
153.264,-0.0829,0.0,30.0,59.525,0.0,1.0,-0.0829,
153.931,-0.0807,0.0,30.0,59.458,0.0,1.0,-0.0807,
154.5975,-0.0794,0.0,30.0,59.404,0.0,1.0,-0.0794,
155.256,-0.0735,0.0,30.033,59.354,0.0,1.0,-0.0735,
155.456,-0.0164,0.0,32.029,59.341,0.0,1.0,-0.0164,
155.656,0.0444,0.0,34.029,59.325,0.0,1.0,0.0444,
155.856,0.1048,0.0,36.025,59.308,0.0,1.0,0.1048,
156.056,0.1648,0.0,38.02,59.295,0.0,1.0,0.1648,
156.256,0.2257,0.0,40.016,59.287,0.0,1.0,0.2257,
156.456,0.288,0.0,42.012,59.27,0.0,1.0,0.288,
156.656,0.3473,0.0,44.012,59.254,0.0,1.0,0.3473,
156.856,0.4081,0.0,46.008,59.241,0.0,1.0,0.4081,
157.056,0.4684,0.0,48.004,59.233,0.0,1.0,0.4684,
157.256,0.53,0.0,50.0,59.22,0.0,1.0,0.53,
157.456,0.5905,0.0,51.995,59.208,0.0,1.0,0.5905,
157.656,0.6506,0.0,53.995,59.191,0.0,1.0,0.6506,
157.856,0.7112,0.0,55.991,59.179,0.0,1.0,0.7112,
158.056,-2.0194,0.0,57.987,59.625,0.0,1.0,-2.0194,
158.256,-0.1569,0.0,59.983,61.508,0.0,1.0,-0.1569,
158.456,0.0937,0.0,61.983,63.47,0.0,1.0,0.0937,
158.656,0.157,0.0,63.979,65.445,0.0,1.0,0.157,
158.856,0.2056,0.0,65.975,67.416,0.0,1.0,0.2056,
159.056,0.2529,0.0,67.97,69.395,0.0,1.0,0.2529,
159.256,0.3002,0.0,69.966,71.37,0.0,1.0,0.3002,
159.456,0.3478,0.0,71.966,73.345,0.0,1.0,0.3478,
159.656,0.3946,0.0,73.962,75.333,0.0,1.0,0.3946,
159.856,0.4427,0.0,75.958,77.308,0.0,1.0,0.4427,
160.056,0.4902,0.0,77.954,79.295,0.0,1.0,0.4902,
160.256,0.5367,0.0,79.95,81.275,0.0,1.0,0.5367,
160.456,0.5845,0.0,81.95,83.262,0.0,1.0,0.5845,
160.656,0.6304,0.0,83.945,85.245,0.0,1.0,0.6304,
160.856,0.6787,0.0,85.941,87.225,0.0,1.0,0.6787,
161.056,0.7187,0.0,87.937,89.208,0.0,1.0,0.7187,
161.256,0.77,0.0,89.937,91.187,0.0,1.0,0.77,
161.456,0.8199,0.0,91.933,93.17,0.0,1.0,0.8199,
161.656,0.8715,0.0,93.929,95.154,0.0,1.0,0.8715,
161.856,0.9203,0.0,95.925,97.137,0.0,1.0,0.9203,
162.056,0.9693,0.0,97.92,99.116,0.0,1.0,0.9693,
162.256,1.0203,0.0,99.92,101.108,0.0,1.0,1.0203,
162.456,1.0668,0.0,101.916,103.091,0.0,1.0,1.0668,
162.656,1.1207,0.0,103.912,105.075,0.0,1.0,1.1207,
162.856,1.1709,0.0,105.908,107.062,0.0,1.0,1.1709,
163.056,1.2231,0.0,107.904,109.045,0.0,1.0,1.2231,
163.256,1.2713,0.0,109.904,111.033,0.0,1.0,1.2713,
163.456,1.326,0.0,111.9,113.02,0.0,1.0,1.326,
163.656,1.3745,0.0,113.895,115.008,0.0,1.0,1.3745,
163.856,1.4306,0.0,115.891,116.995,0.0,1.0,1.4306,
164.056,1.4855,0.0,117.891,118.987,0.0,1.0,1.4855,
164.256,1.5345,0.0,119.887,120.979,0.0,1.0,1.5345,
164.456,1.5904,0.0,121.883,122.966,0.0,1.0,1.5904,
164.656,1.6422,0.0,123.879,124.954,0.0,1.0,1.6422,
164.856,1.6979,0.0,125.875,126.945,0.0,1.0,1.6979,
165.056,1.752,0.0,127.875,128.941,0.0,1.0,1.752,
165.256,1.7975,0.0,129.87,130.929,0.0,1.0,1.7975,
165.456,1.8619,0.0,131.866,132.92,0.0,1.0,1.8619,
165.656,1.9204,0.0,133.862,134.912,0.0,1.0,1.9204,
165.856,1.9729,0.0,135.858,136.912,0.0,1.0,1.9729,
166.056,2.0241,0.0,137.858,138.904,0.0,1.0,2.0241,
166.256,2.093,0.0,139.854,140.895,0.0,1.0,2.093,
166.456,2.1562,0.0,141.85,142.887,0.0,1.0,2.1562,
166.656,2.2201,0.0,143.845,144.87,0.0,1.0,2.2201,
166.856,2.2835,0.0,145.841,146.866,0.0,1.0,2.2835,
167.056,2.3471,0.0,147.841,148.85,0.0,1.0,2.3471,
167.256,2.4124,0.0,149.837,150.845,0.0,1.0,2.4124,
167.456,2.471,0.0,151.833,152.833,0.0,1.0,2.471,
167.656,2.5405,0.0,153.829,154.82,0.0,1.0,2.5405,
167.856,2.6049,0.0,155.829,156.812,0.0,1.0,2.6049,
168.056,2.671,0.0,157.825,158.812,0.0,1.0,2.671,
168.256,2.7366,0.0,159.82,160.8,0.0,1.0,2.7366,
168.456,2.8006,0.0,161.816,162.795,0.0,1.0,2.8006,
168.656,2.8499,0.0,163.812,164.787,0.0,1.0,2.8499,
168.856,2.9294,0.0,165.812,166.783,0.0,1.0,2.9294,
169.056,2.9953,0.0,167.808,168.775,0.0,1.0,2.9953,
169.256,3.0681,0.0,169.804,170.77,0.0,1.0,3.0681,
169.456,3.1386,0.0,171.8,172.762,0.0,1.0,3.1386,
169.656,3.2066,0.0,173.795,174.754,0.0,1.0,3.2066,
169.856,3.2792,0.0,175.795,176.75,0.0,1.0,3.2792,
170.056,3.3424,0.0,177.791,178.737,0.0,1.0,3.3424,
170.256,3.4081,0.0,179.787,180.733,0.0,1.0,3.4081,
170.456,3.4883,0.0,181.783,182.725,0.0,1.0,3.4883,
170.656,3.5585,0.0,183.783,184.72,0.0,1.0,3.5585,
170.856,3.6341,0.0,185.779,186.716,0.0,1.0,3.6341,
171.056,3.7096,0.0,187.775,188.712,0.0,1.0,3.7096,
171.256,3.784,0.0,189.77,190.704,0.0,1.0,3.784,
171.456,3.861,0.0,191.766,192.704,0.0,1.0,3.861,
171.656,3.9356,0.0,193.766,194.704,0.0,1.0,3.9356,
171.856,4.0139,0.0,195.762,196.695,0.0,1.0,4.0139,
172.056,4.0921,0.0,197.758,198.683,0.0,1.0,4.0921,
172.256,4.1719,0.0,199.754,200.67,0.0,1.0,4.1719,
172.456,4.2514,0.0,201.75,202.666,0.0,1.0,4.2514,
172.656,4.3309,0.0,203.75,204.654,0.0,1.0,4.3309,
172.856,4.4121,0.0,205.745,206.645,0.0,1.0,4.4121,
173.056,4.4919,0.0,207.741,208.637,0.0,1.0,4.4919,
173.256,4.576,0.0,209.737,210.629,0.0,1.0,4.576,
173.456,4.6569,0.0,211.737,212.625,0.0,1.0,4.6569,
173.656,4.7383,0.0,213.733,214.616,0.0,1.0,4.7383,
173.856,4.8231,0.0,215.729,216.608,0.0,1.0,4.8231,
174.056,4.9076,0.0,217.725,218.604,0.0,1.0,4.9076,
174.256,4.9937,0.0,219.72,220.6,0.0,1.0,4.9937,
174.456,5.081,0.0,221.72,222.587,0.0,1.0,5.081,
174.656,5.163,0.0,223.716,224.587,0.0,1.0,5.163,
174.856,5.2464,0.0,225.712,226.579,0.0,1.0,5.2464,
175.056,5.3328,0.0,227.708,228.57,0.0,1.0,5.3328,
175.256,5.4221,0.0,229.704,230.57,0.0,1.0,5.4221,
175.456,5.5116,0.0,231.704,232.566,0.0,1.0,5.5116,
175.656,5.6003,0.0,233.7,234.558,0.0,1.0,5.6003,
175.856,5.6854,0.0,235.695,236.558,0.0,1.0,5.6854,
176.056,5.7799,0.0,237.691,238.554,0.0,1.0,5.7799,
176.256,5.8737,0.0,239.687,240.554,0.0,1.0,5.8737,
176.456,5.9646,0.0,241.687,242.554,0.0,1.0,5.9646,
176.656,6.0605,0.0,243.683,244.55,0.0,1.0,6.0605,
176.856,6.1533,0.0,245.679,246.545,0.0,1.0,6.1533,
177.056,6.2489,0.0,247.675,248.533,0.0,1.0,6.2489,
177.256,6.346,0.0,249.675,250.533,0.0,1.0,6.346,
177.456,6.4344,0.0,251.67,252.525,0.0,1.0,6.4344,
177.656,6.5368,0.0,253.666,254.516,0.0,1.0,6.5368,
177.856,6.6367,0.0,255.662,256.508,0.0,1.0,6.6367,
178.056,6.7375,0.0,257.658,258.5,0.0,1.0,6.7375,
178.256,6.8366,0.0,259.658,260.491,0.0,1.0,6.8366,
178.456,6.937,0.0,261.654,262.487,0.0,1.0,6.937,
178.656,7.0388,0.0,263.65,264.475,0.0,1.0,7.0388,
178.856,7.144,0.0,265.645,266.475,0.0,1.0,7.144,
179.056,7.2511,0.0,267.641,268.462,0.0,1.0,7.2511,
179.256,7.3573,0.0,269.641,270.462,0.0,1.0,7.3573,
179.456,7.462,0.0,271.637,272.458,0.0,1.0,7.462,
179.656,7.5704,0.0,273.633,274.45,0.0,1.0,7.5704,
179.856,7.6793,0.0,275.629,276.441,0.0,1.0,7.6793,
180.056,7.7892,0.0,277.629,278.441,0.0,1.0,7.7892,
180.256,7.9008,0.0,279.625,280.437,0.0,1.0,7.9008,
180.456,8.0126,0.0,281.62,282.429,0.0,1.0,8.0126,
180.656,8.1262,0.0,283.616,284.429,0.0,1.0,8.1262,
180.856,8.2407,0.0,285.612,286.425,0.0,1.0,8.2407,
181.056,8.3561,0.0,287.612,288.425,0.0,1.0,8.3561,
181.256,8.4736,0.0,289.608,290.416,0.0,1.0,8.4736,
181.456,8.5935,0.0,291.604,292.416,0.0,1.0,8.5935,
181.656,8.7155,0.0,293.6,294.408,0.0,1.0,8.7155,
181.856,8.8367,0.0,295.595,296.408,0.0,1.0,8.8367,
182.056,8.9574,0.0,297.595,298.408,0.0,1.0,8.9574,
182.256,9.0759,0.0,299.591,300.408,0.0,1.0,9.0759,
182.456,9.1938,0.0,301.587,302.408,0.0,1.0,9.1938,
182.656,9.3147,0.0,303.583,304.404,0.0,1.0,9.3147,
182.856,9.4351,0.0,305.583,306.4,0.0,1.0,9.4351,
183.056,9.5621,0.0,307.579,308.395,0.0,1.0,9.5621,
183.256,9.6907,0.0,309.575,310.391,0.0,1.0,9.6907,
183.456,9.8182,0.0,311.57,312.391,0.0,1.0,9.8182,
183.656,9.9536,0.0,313.566,314.391,0.0,1.0,9.9536,
183.856,10.0885,0.0,315.566,316.375,0.0,1.0,10.0885,
184.056,10.2258,0.0,317.562,318.375,0.0,1.0,10.2258,
184.256,10.3686,0.0,319.558,320.366,0.0,1.0,10.3686,
184.456,10.5118,0.0,321.554,322.358,0.0,1.0,10.5118,
184.656,10.6642,0.0,323.55,324.35,0.0,1.0,10.6642,
184.856,10.8236,0.0,325.55,326.341,0.0,1.0,10.8236,
185.056,10.9874,0.0,327.545,328.341,0.0,1.0,10.9874,
185.256,11.1662,0.0,329.541,330.337,0.0,1.0,11.1662,
185.456,11.3619,0.0,331.537,332.329,0.0,1.0,11.3619,
185.656,11.584,0.0,333.533,334.316,0.0,1.0,11.584,
185.856,11.8388,0.0,335.533,336.316,0.0,1.0,11.8388,
186.056,12.1206,0.0,337.529,338.312,0.0,1.0,12.1206,
186.256,12.2635,0.0,339.525,340.308,0.0,1.0,12.2635,
186.456,12.0646,0.0,341.52,342.304,0.0,1.0,12.0646,
186.656,11.9648,0.0,343.52,344.3,0.0,1.0,11.9648,
186.856,12.0375,0.0,345.516,346.291,0.0,1.0,12.0375,
187.056,12.1602,0.0,347.512,348.295,0.0,1.0,12.1602,
187.256,12.3013,0.0,349.508,350.291,0.0,1.0,12.3013,
187.456,12.4479,0.0,351.504,352.295,0.0,1.0,12.4479,
187.656,12.5935,0.0,353.504,354.291,0.0,1.0,12.5935,
187.856,12.7431,0.0,355.5,356.287,0.0,1.0,12.7431,
188.056,12.893,0.0,357.495,358.291,0.0,1.0,12.893,
188.256,13.0448,0.0,359.491,360.287,0.0,1.0,13.0448,
188.456,13.2013,0.0,361.487,362.287,0.0,1.0,13.2013,
188.656,13.3529,0.0,363.487,364.275,0.0,1.0,13.3529,
188.856,13.5102,0.0,365.483,366.27,0.0,1.0,13.5102,
189.056,13.6686,0.0,367.479,368.262,0.0,1.0,13.6686,
189.256,13.828,0.0,369.475,370.258,0.0,1.0,13.828,
189.456,13.9883,0.0,371.475,372.245,0.0,1.0,13.9883,
189.656,14.1535,0.0,373.47,374.241,0.0,1.0,14.1535,
189.856,14.3037,0.0,375.466,376.233,0.0,1.0,14.3037,
190.056,14.4716,0.0,377.462,378.237,0.0,1.0,14.4716,
190.256,14.6408,0.0,379.458,380.233,0.0,1.0,14.6408,
190.306,14.6826,0.0,379.958,380.733,0.0,1.0,14.6826,