File: Chapter4_Crystallinity-measurement/data/DSC/501024_1.csv
Time,Unsubtracted Heat Flow,Baseline Heat Flow,Program Temperature,Sample Temperature,Approx. Gas Flow,Heat Flow Calibration,Uncorrected Heat Flow,
0.0,-0.3442,0.0,30.0,60.737,0.0,1.0,-0.3442,
0.666667,-0.1416,0.0,30.0,60.42,0.0,1.0,-0.1416,
1.333333,-0.1445,0.0,30.0,60.208,0.0,1.0,-0.1445,
2.0,-0.145,0.0,30.0,60.07,0.0,1.0,-0.145,
2.666667,-0.144,0.0,30.0,59.966,0.0,1.0,-0.144,
3.333333,-0.1424,0.0,30.0,59.879,0.0,1.0,-0.1424,
4.0,-0.1406,0.0,30.0,59.816,0.0,1.0,-0.1406,
4.666667,-0.1387,0.0,30.0,59.754,0.0,1.0,-0.1387,
5.333333,-0.0389,0.0,33.254,59.695,0.0,1.0,-0.0389,
6.0,0.1634,0.0,39.912,59.641,0.0,1.0,0.1634,
6.666667,0.3659,0.0,46.566,59.6,0.0,1.0,0.3659,
7.333333,0.5676,0.0,53.22,59.55,0.0,1.0,0.5676,
8.0,-0.4492,0.0,59.879,61.42,0.0,1.0,-0.4492,
8.666667,0.233,0.0,66.533,67.983,0.0,1.0,0.233,
9.333333,0.3832,0.0,73.191,74.579,0.0,1.0,0.3832,
10.0,0.5332,0.0,79.845,81.175,0.0,1.0,0.5332,
10.6667,0.684,0.0,86.5,87.787,0.0,1.0,0.684,
11.3333,0.8359,0.0,93.158,94.391,0.0,1.0,0.8359,
12.0,0.9986,0.0,99.812,101.004,0.0,1.0,0.9986,
12.6667,1.188,0.0,106.466,107.625,0.0,1.0,1.188,
13.3333,1.4362,0.0,113.125,114.245,0.0,1.0,1.4362,
14.0,1.6263,0.0,119.779,120.879,0.0,1.0,1.6263,
14.6667,1.7612,0.0,126.437,127.512,0.0,1.0,1.7612,
15.3333,1.9544,0.0,133.091,134.15,0.0,1.0,1.9544,
16.0,2.162,0.0,139.745,140.795,0.0,1.0,2.162,
16.6667,2.3511,0.0,146.404,147.425,0.0,1.0,2.3511,
17.3333,2.5492,0.0,153.058,154.054,0.0,1.0,2.5492,
18.0,2.7658,0.0,159.712,160.7,0.0,1.0,2.7658,
18.6667,2.9459,0.0,166.37,167.341,0.0,1.0,2.9459,
19.3333,3.1516,0.0,173.025,173.983,0.0,1.0,3.1516,
20.0,3.4387,0.0,179.683,180.629,0.0,1.0,3.4387,
20.6667,3.7387,0.0,186.337,187.279,0.0,1.0,3.7387,
21.3333,3.989,0.0,192.991,193.929,0.0,1.0,3.989,
22.0,4.2937,0.0,199.65,200.566,0.0,1.0,4.2937,
22.6667,4.6136,0.0,206.304,207.208,0.0,1.0,4.6136,
23.3333,4.9341,0.0,212.958,213.85,0.0,1.0,4.9341,
24.0,5.201,0.0,219.616,220.495,0.0,1.0,5.201,
24.6667,5.5036,0.0,226.27,227.141,0.0,1.0,5.5036,
25.3333,5.8065,0.0,232.929,233.795,0.0,1.0,5.8065,
26.0,6.1265,0.0,239.583,240.445,0.0,1.0,6.1265,
26.6667,6.464,0.0,246.237,247.1,0.0,1.0,6.464,
27.3333,6.7954,0.0,252.895,253.75,0.0,1.0,6.7954,
28.0,7.1422,0.0,259.55,260.387,0.0,1.0,7.1422,
28.6667,7.5008,0.0,266.204,267.037,0.0,1.0,7.5008,
29.3333,7.8697,0.0,272.862,273.679,0.0,1.0,7.8697,
30.0,8.2682,0.0,279.516,280.333,0.0,1.0,8.2682,
30.6667,8.6902,0.0,286.175,286.991,0.0,1.0,8.6902,
31.3333,9.1306,0.0,292.829,293.645,0.0,1.0,9.1306,
32.0,9.5714,0.0,299.483,300.3,0.0,1.0,9.5714,
32.6667,10.0342,0.0,306.141,306.954,0.0,1.0,10.0342,
33.3333,10.5317,0.0,312.795,313.612,0.0,1.0,10.5317,
34.0,11.0912,0.0,319.45,320.262,0.0,1.0,11.0912,
34.6667,11.7275,0.0,326.108,326.904,0.0,1.0,11.7275,
35.3333,12.4679,0.0,332.762,333.55,0.0,1.0,12.4679,
36.0,13.1831,0.0,339.42,340.2,0.0,1.0,13.1831,
36.6667,13.0791,0.0,346.075,346.858,0.0,1.0,13.0791,
37.3333,13.5088,0.0,352.729,353.525,0.0,1.0,13.5088,
38.0,14.0746,0.0,359.387,360.183,0.0,1.0,14.0746,
38.6667,14.6534,0.0,366.041,366.825,0.0,1.0,14.6534,
39.3333,15.2491,0.0,372.695,373.475,0.0,1.0,15.2491,
40.0,15.8387,0.0,379.354,380.129,0.0,1.0,15.8387,
40.2443,15.5267,0.0,378.191,379.441,0.0,1.0,15.5267,
40.4443,15.1886,0.0,376.195,377.445,0.0,1.0,15.1886,
40.6443,14.9888,0.0,374.2,375.454,0.0,1.0,14.9888,
40.8443,14.7935,0.0,372.204,373.462,0.0,1.0,14.7935,
41.0443,14.5995,0.0,370.204,371.466,0.0,1.0,14.5995,
41.2443,14.411,0.0,368.208,369.475,0.0,1.0,14.411,
41.4443,14.2268,0.0,366.212,367.479,0.0,1.0,14.2268,
41.6443,14.0461,0.0,364.216,365.487,0.0,1.0,14.0461,
41.8443,13.8666,0.0,362.22,363.495,0.0,1.0,13.8666,
42.0443,13.6896,0.0,360.22,361.508,0.0,1.0,13.6896,
42.2443,13.5163,0.0,358.225,359.516,0.0,1.0,13.5163,
42.4443,13.3486,0.0,356.229,357.52,0.0,1.0,13.3486,
42.6443,13.1727,0.0,354.233,355.52,0.0,1.0,13.1727,
42.8443,13.0112,0.0,352.237,353.525,0.0,1.0,13.0112,
43.0443,12.8456,0.0,350.237,351.529,0.0,1.0,12.8456,
43.2443,12.678,0.0,348.241,349.533,0.0,1.0,12.678,
43.4443,12.5175,0.0,346.245,347.537,0.0,1.0,12.5175,
43.6443,12.3602,0.0,344.25,345.537,0.0,1.0,12.3602,
43.8443,12.1997,0.0,342.25,343.545,0.0,1.0,12.1997,
44.0443,12.044,0.0,340.254,341.55,0.0,1.0,12.044,
44.2443,11.8921,0.0,338.258,339.558,0.0,1.0,11.8921,
44.4443,11.7384,0.0,336.262,337.558,0.0,1.0,11.7384,
44.6443,11.5859,0.0,334.266,335.566,0.0,1.0,11.5859,
44.8443,11.4409,0.0,332.266,333.57,0.0,1.0,11.4409,
45.0443,11.2897,0.0,330.27,331.579,0.0,1.0,11.2897,
45.2443,11.1534,0.0,328.275,329.587,0.0,1.0,11.1534,
45.4443,11.0019,0.0,326.279,327.595,0.0,1.0,11.0019,
45.6443,10.8573,0.0,324.283,325.6,0.0,1.0,10.8573,
45.8443,10.7238,0.0,322.283,323.612,0.0,1.0,10.7238,
46.0443,10.5791,0.0,320.287,321.62,0.0,1.0,10.5791,
46.2443,10.4402,0.0,318.291,319.629,0.0,1.0,10.4402,
46.4443,10.3059,0.0,316.295,317.629,0.0,1.0,10.3059,
46.6443,10.1721,0.0,314.295,315.637,0.0,1.0,10.1721,
46.8443,10.0336,0.0,312.3,313.65,0.0,1.0,10.0336,
47.0443,9.9006,0.0,310.304,311.645,0.0,1.0,9.9006,
47.2443,9.771,0.0,308.308,309.658,0.0,1.0,9.771,
47.4443,9.6393,0.0,306.312,307.662,0.0,1.0,9.6393,
47.6443,9.5074,0.0,304.312,305.67,0.0,1.0,9.5074,
47.8443,9.3634,0.0,302.316,303.675,0.0,1.0,9.3634,
48.0443,9.1395,0.0,300.32,301.687,0.0,1.0,9.1395,
48.2443,8.4935,0.0,298.325,299.683,0.0,1.0,8.4935,
48.4443,6.6934,0.0,296.329,297.691,0.0,1.0,6.6934,
48.6443,6.3058,0.0,294.329,295.691,0.0,1.0,6.3058,
48.8443,8.0653,0.0,292.333,293.695,0.0,1.0,8.0653,
49.0443,8.3306,0.0,290.337,291.704,0.0,1.0,8.3306,
49.2443,8.3133,0.0,288.341,289.704,0.0,1.0,8.3133,
49.4443,8.2471,0.0,286.345,287.708,0.0,1.0,8.2471,
49.6443,8.1678,0.0,284.345,285.708,0.0,1.0,8.1678,
49.8443,8.0713,0.0,282.35,283.72,0.0,1.0,8.0713,
50.0443,7.9733,0.0,280.354,281.725,0.0,1.0,7.9733,
50.2443,7.8734,0.0,278.358,279.733,0.0,1.0,7.8734,
50.4443,7.77,0.0,276.358,277.737,0.0,1.0,7.77,
50.6443,7.6737,0.0,274.362,275.745,0.0,1.0,7.6737,
50.8443,7.5712,0.0,272.366,273.75,0.0,1.0,7.5712,
51.0443,7.4626,0.0,270.37,271.758,0.0,1.0,7.4626,
51.2443,7.3627,0.0,268.375,269.766,0.0,1.0,7.3627,
51.4443,7.2606,0.0,266.375,267.766,0.0,1.0,7.2606,
51.6443,7.1592,0.0,264.379,265.775,0.0,1.0,7.1592,
51.8443,7.0597,0.0,262.383,263.787,0.0,1.0,7.0597,
52.0443,6.9621,0.0,260.387,261.795,0.0,1.0,6.9621,
52.2443,6.8596,0.0,258.391,259.8,0.0,1.0,6.8596,
52.4443,6.7638,0.0,256.391,257.812,0.0,1.0,6.7638,
52.6443,6.6638,0.0,254.395,255.825,0.0,1.0,6.6638,
52.8443,6.5678,0.0,252.4,253.837,0.0,1.0,6.5678,
53.0443,6.4748,0.0,250.404,251.841,0.0,1.0,6.4748,
53.2443,6.3767,0.0,248.404,249.854,0.0,1.0,6.3767,
53.4443,6.2825,0.0,246.408,247.862,0.0,1.0,6.2825,
53.6443,6.1903,0.0,244.412,245.866,0.0,1.0,6.1903,
53.8443,6.1013,0.0,242.416,243.875,0.0,1.0,6.1013,
54.0443,6.0026,0.0,240.42,241.875,0.0,1.0,6.0026,
54.2443,5.9132,0.0,238.42,239.879,0.0,1.0,5.9132,
54.4443,5.8229,0.0,236.425,237.883,0.0,1.0,5.8229,
54.6443,5.7274,0.0,234.429,235.891,0.0,1.0,5.7274,
54.8443,5.6408,0.0,232.433,233.895,0.0,1.0,5.6408,
55.0443,5.5549,0.0,230.437,231.904,0.0,1.0,5.5549,
55.2443,5.4666,0.0,228.437,229.908,0.0,1.0,5.4666,
55.4443,5.3793,0.0,226.441,227.916,0.0,1.0,5.3793,
55.6443,5.2947,0.0,224.445,225.925,0.0,1.0,5.2947,
55.8443,5.2082,0.0,222.45,223.933,0.0,1.0,5.2082,
56.0443,5.1234,0.0,220.45,221.945,0.0,1.0,5.1234,
56.2443,5.0401,0.0,218.454,219.945,0.0,1.0,5.0401,
56.4443,4.9577,0.0,216.458,217.958,0.0,1.0,4.9577,
56.6443,4.8767,0.0,214.462,215.966,0.0,1.0,4.8767,
56.8443,4.7988,0.0,212.466,213.975,0.0,1.0,4.7988,
57.0443,4.7166,0.0,210.466,211.983,0.0,1.0,4.7166,
57.2443,4.6402,0.0,208.47,209.995,0.0,1.0,4.6402,
57.4443,4.5623,0.0,206.475,208.004,0.0,1.0,4.5623,
57.6443,4.4828,0.0,204.479,206.02,0.0,1.0,4.4828,
57.8443,4.4061,0.0,202.483,204.025,0.0,1.0,4.4061,
58.0443,4.3338,0.0,200.483,202.037,0.0,1.0,4.3338,
58.2443,4.2574,0.0,198.487,200.05,0.0,1.0,4.2574,
58.4443,4.1854,0.0,196.491,198.058,0.0,1.0,4.1854,
58.6443,4.1116,0.0,194.495,196.07,0.0,1.0,4.1116,
58.8443,4.0412,0.0,192.5,194.083,0.0,1.0,4.0412,
59.0443,3.9686,0.0,190.5,192.091,0.0,1.0,3.9686,
59.2443,3.8981,0.0,188.504,190.095,0.0,1.0,3.8981,
59.4443,3.829,0.0,186.508,188.108,0.0,1.0,3.829,
59.6443,3.7621,0.0,184.512,186.112,0.0,1.0,3.7621,
59.8443,3.6925,0.0,182.512,184.116,0.0,1.0,3.6925,
60.0443,3.6257,0.0,180.516,182.125,0.0,1.0,3.6257,
60.2443,3.5593,0.0,178.52,180.137,0.0,1.0,3.5593,
60.4443,3.4959,0.0,176.525,178.15,0.0,1.0,3.4959,
60.6443,3.4299,0.0,174.529,176.158,0.0,1.0,3.4299,
60.8443,3.3662,0.0,172.529,174.166,0.0,1.0,3.3662,
61.0443,3.3036,0.0,170.533,172.175,0.0,1.0,3.3036,
61.2443,3.2419,0.0,168.537,170.187,0.0,1.0,3.2419,
61.4443,3.1807,0.0,166.541,168.195,0.0,1.0,3.1807,
61.6443,3.1215,0.0,164.545,166.208,0.0,1.0,3.1215,
61.8443,3.0567,0.0,162.545,164.212,0.0,1.0,3.0567,
62.0443,3.0087,0.0,160.55,162.229,0.0,1.0,3.0087,
62.2443,2.9473,0.0,158.554,160.245,0.0,1.0,2.9473,
62.4443,2.8915,0.0,156.558,158.254,0.0,1.0,2.8915,
62.6443,2.8376,0.0,154.558,156.266,0.0,1.0,2.8376,
62.8443,2.7819,0.0,152.562,154.266,0.0,1.0,2.7819,
63.0443,2.7289,0.0,150.566,152.287,0.0,1.0,2.7289,
63.2443,2.6764,0.0,148.57,150.304,0.0,1.0,2.6764,
63.4443,2.6256,0.0,146.575,148.316,0.0,1.0,2.6256,
63.6443,2.5751,0.0,144.575,146.329,0.0,1.0,2.5751,
63.8443,2.5254,0.0,142.579,144.35,0.0,1.0,2.5254,
64.0443,2.4763,0.0,140.583,142.362,0.0,1.0,2.4763,
64.2443,2.4295,0.0,138.587,140.375,0.0,1.0,2.4295,
64.4443,2.382,0.0,136.591,138.391,0.0,1.0,2.382,
64.6443,2.3325,0.0,134.591,136.404,0.0,1.0,2.3325,
64.8443,2.2829,0.0,132.595,134.412,0.0,1.0,2.2829,
65.0443,2.2358,0.0,130.6,132.429,0.0,1.0,2.2358,
65.2443,2.187,0.0,128.604,130.445,0.0,1.0,2.187,
65.4443,2.1411,0.0,126.604,128.458,0.0,1.0,2.1411,
65.6443,2.0951,0.0,124.608,126.47,0.0,1.0,2.0951,
65.8443,2.0497,0.0,122.612,124.491,0.0,1.0,2.0497,
66.0443,2.0062,0.0,120.616,122.508,0.0,1.0,2.0062,
66.2443,1.9612,0.0,118.62,120.529,0.0,1.0,1.9612,
66.4443,1.9184,0.0,116.62,118.541,0.0,1.0,1.9184,
66.6443,1.877,0.0,114.625,116.566,0.0,1.0,1.877,
66.8443,1.8361,0.0,112.629,114.583,0.0,1.0,1.8361,
67.0443,1.7947,0.0,110.633,112.608,0.0,1.0,1.7947,
67.2443,1.7557,0.0,108.637,110.629,0.0,1.0,1.7557,
67.4443,1.7212,0.0,106.637,108.645,0.0,1.0,1.7212,
67.6443,1.6833,0.0,104.641,106.675,0.0,1.0,1.6833,
67.8443,1.6508,0.0,102.645,104.7,0.0,1.0,1.6508,
68.0443,1.6169,0.0,100.65,102.733,0.0,1.0,1.6169,
68.2443,1.5805,0.0,98.654,100.75,0.0,1.0,1.5805,
68.4443,1.5507,0.0,96.654,98.779,0.0,1.0,1.5507,
68.6443,1.5248,0.0,94.658,96.812,0.0,1.0,1.5248,
68.8443,1.4968,0.0,92.662,94.845,0.0,1.0,1.4968,
69.0443,1.472,0.0,90.666,92.879,0.0,1.0,1.472,
69.2443,1.4529,0.0,88.666,90.916,0.0,1.0,1.4529,
69.4443,1.4353,0.0,86.67,88.95,0.0,1.0,1.4353,
69.6443,1.4245,0.0,84.675,87.0,0.0,1.0,1.4245,
69.8443,1.4236,0.0,82.679,85.05,0.0,1.0,1.4236,
70.0443,1.4225,0.0,80.683,83.083,0.0,1.0,1.4225,
70.2443,1.4303,0.0,78.683,81.129,0.0,1.0,1.4303,
70.4443,1.4568,0.0,76.687,79.179,0.0,1.0,1.4568,
70.6443,1.4945,0.0,74.691,77.237,0.0,1.0,1.4945,
70.8443,1.5621,0.0,72.695,75.304,0.0,1.0,1.5621,
71.0443,1.6716,0.0,70.7,73.37,0.0,1.0,1.6716,
71.2443,1.229,0.0,68.7,71.575,0.0,1.0,1.229,
71.4443,1.0886,0.0,66.704,70.045,0.0,1.0,1.0886,
71.6443,1.0053,0.0,64.708,68.741,0.0,1.0,1.0053,
71.8443,0.9307,0.0,62.712,67.629,0.0,1.0,0.9307,
72.0443,0.8585,0.0,60.712,66.67,0.0,1.0,0.8585,
72.2443,0.7887,0.0,58.716,65.862,0.0,1.0,0.7887,
72.4443,0.721,0.0,56.72,65.166,0.0,1.0,0.721,
72.6443,0.6539,0.0,54.725,64.566,0.0,1.0,0.6539,
72.8443,0.5885,0.0,52.729,64.054,0.0,1.0,0.5885,
73.0443,0.5235,0.0,50.729,63.62,0.0,1.0,0.5235,
73.2443,0.4595,0.0,48.733,63.245,0.0,1.0,0.4595,
73.4443,0.3958,0.0,46.737,62.925,0.0,1.0,0.3958,
73.6443,0.3328,0.0,44.741,62.637,0.0,1.0,0.3328,
73.8443,0.2714,0.0,42.745,62.404,0.0,1.0,0.2714,
74.0443,0.2092,0.0,40.745,62.2,0.0,1.0,0.2092,
74.2443,0.1475,0.0,38.75,62.02,0.0,1.0,0.1475,
74.4443,0.0861,0.0,36.754,61.862,0.0,1.0,0.0861,
74.6443,0.0254,0.0,34.758,61.733,0.0,1.0,0.0254,
74.8443,-0.0351,0.0,32.758,61.616,0.0,1.0,-0.0351,
75.0443,-0.0963,0.0,30.762,61.512,0.0,1.0,-0.0963,
75.5325,-0.1205,0.0,30.0,61.316,0.0,1.0,-0.1205,
76.1992,-0.1195,0.0,30.0,61.129,0.0,1.0,-0.1195,
76.8658,-0.1189,0.0,30.0,61.0,0.0,1.0,-0.1189,
77.5325,-0.1161,0.0,30.0,60.904,0.0,1.0,-0.1161,
78.1992,-0.1148,0.0,30.0,60.82,0.0,1.0,-0.1148,
78.8658,-0.1134,0.0,30.0,60.762,0.0,1.0,-0.1134,
79.5325,-0.1106,0.0,30.0,60.7,0.0,1.0,-0.1106,
80.1502,-0.1025,0.0,30.204,60.654,0.0,1.0,-0.1025,
80.3502,-0.0427,0.0,32.204,60.633,0.0,1.0,-0.0427,
80.5502,0.0179,0.0,34.2,60.62,0.0,1.0,0.0179,
80.7502,0.0795,0.0,36.195,60.604,0.0,1.0,0.0795,
80.9502,0.1399,0.0,38.191,60.591,0.0,1.0,0.1399,
81.1502,0.2005,0.0,40.187,60.579,0.0,1.0,0.2005,
81.3502,0.2616,0.0,42.187,60.558,0.0,1.0,0.2616,
81.5502,0.3218,0.0,44.183,60.541,0.0,1.0,0.3218,
81.7502,0.3825,0.0,46.179,60.529,0.0,1.0,0.3825,
81.9502,0.4436,0.0,48.175,60.516,0.0,1.0,0.4436,
82.1502,0.5036,0.0,50.175,60.504,0.0,1.0,0.5036,
82.3502,0.5647,0.0,52.17,60.491,0.0,1.0,0.5647,
82.5502,0.6252,0.0,54.166,60.475,0.0,1.0,0.6252,
82.7502,0.686,0.0,56.162,60.458,0.0,1.0,0.686,
82.9502,0.7468,0.0,58.158,60.445,0.0,1.0,0.7468,
83.1502,-0.6622,0.0,60.158,61.741,0.0,1.0,-0.6622,
83.3502,0.1498,0.0,62.154,63.687,0.0,1.0,0.1498,
83.5502,0.2581,0.0,64.15,65.662,0.0,1.0,0.2581,
83.7502,0.3115,0.0,66.145,67.629,0.0,1.0,0.3115,
83.9502,0.3641,0.0,68.141,69.604,0.0,1.0,0.3641,
84.1502,0.4163,0.0,70.141,71.587,0.0,1.0,0.4163,
84.3502,0.4661,0.0,72.137,73.558,0.0,1.0,0.4661,
84.5502,0.5169,0.0,74.133,75.541,0.0,1.0,0.5169,
84.7502,0.5665,0.0,76.129,77.52,0.0,1.0,0.5665,
84.9502,0.6184,0.0,78.129,79.5,0.0,1.0,0.6184,
85.1502,0.6702,0.0,80.125,81.483,0.0,1.0,0.6702,
85.3502,0.7185,0.0,82.12,83.462,0.0,1.0,0.7185,
85.5502,0.7712,0.0,84.116,85.454,0.0,1.0,0.7712,
85.7502,0.8207,0.0,86.112,87.429,0.0,1.0,0.8207,
85.9502,0.8735,0.0,88.112,89.408,0.0,1.0,0.8735,
86.1502,0.9169,0.0,90.108,91.391,0.0,1.0,0.9169,
86.3502,0.9758,0.0,92.104,93.37,0.0,1.0,0.9758,
86.5502,1.0257,0.0,94.1,95.358,0.0,1.0,1.0257,
86.7502,1.0812,0.0,96.095,97.337,0.0,1.0,1.0812,
86.9502,1.1328,0.0,98.095,99.316,0.0,1.0,1.1328,
87.1502,1.1903,0.0,100.091,101.308,0.0,1.0,1.1903,
87.3502,1.2413,0.0,102.087,103.291,0.0,1.0,1.2413,
87.5502,1.2907,0.0,104.083,105.275,0.0,1.0,1.2907,
87.7502,1.3518,0.0,106.083,107.258,0.0,1.0,1.3518,
87.9502,1.406,0.0,108.079,109.25,0.0,1.0,1.406,
88.1502,1.4611,0.0,110.075,111.233,0.0,1.0,1.4611,
88.3502,1.5173,0.0,112.07,113.22,0.0,1.0,1.5173,
88.5502,1.5765,0.0,114.066,115.208,0.0,1.0,1.5765,
88.7502,1.6328,0.0,116.066,117.195,0.0,1.0,1.6328,
88.9502,1.6928,0.0,118.062,119.187,0.0,1.0,1.6928,
89.1502,1.7512,0.0,120.058,121.175,0.0,1.0,1.7512,
89.3502,1.8137,0.0,122.054,123.162,0.0,1.0,1.8137,
89.5502,1.8666,0.0,124.05,125.15,0.0,1.0,1.8666,
89.7502,1.9309,0.0,126.05,127.145,0.0,1.0,1.9309,
89.9502,1.9907,0.0,128.045,129.133,0.0,1.0,1.9907,
90.1502,2.0527,0.0,130.041,131.129,0.0,1.0,2.0527,
90.3502,2.1129,0.0,132.037,133.112,0.0,1.0,2.1129,
90.5502,2.174,0.0,134.033,135.108,0.0,1.0,2.174,
90.7502,2.2385,0.0,136.033,137.104,0.0,1.0,2.2385,
90.9502,2.304,0.0,138.029,139.104,0.0,1.0,2.304,
91.1502,2.3675,0.0,140.025,141.091,0.0,1.0,2.3675,
91.3502,2.4331,0.0,142.02,143.079,0.0,1.0,2.4331,
91.5502,2.5048,0.0,144.02,145.07,0.0,1.0,2.5048,
91.7502,2.5743,0.0,146.016,147.058,0.0,1.0,2.5743,
91.9502,2.6446,0.0,148.012,149.05,0.0,1.0,2.6446,
92.1502,2.7146,0.0,150.008,151.033,0.0,1.0,2.7146,
92.3502,2.7867,0.0,152.004,153.029,0.0,1.0,2.7867,
92.5502,2.8564,0.0,154.004,155.016,0.0,1.0,2.8564,
92.7502,2.9253,0.0,156.0,157.008,0.0,1.0,2.9253,
92.9502,2.9929,0.0,157.995,159.0,0.0,1.0,2.9929,
93.1502,3.0662,0.0,159.991,160.995,0.0,1.0,3.0662,
93.3502,3.1337,0.0,161.987,162.987,0.0,1.0,3.1337,
93.5502,3.2054,0.0,163.987,164.979,0.0,1.0,3.2054,
93.7502,3.2732,0.0,165.983,166.975,0.0,1.0,3.2732,
93.9502,3.3253,0.0,167.979,168.966,0.0,1.0,3.3253,
94.1502,3.4196,0.0,169.975,170.962,0.0,1.0,3.4196,
94.3502,3.4917,0.0,171.975,172.95,0.0,1.0,3.4917,
94.5502,3.564,0.0,173.97,174.945,0.0,1.0,3.564,
94.7502,3.6399,0.0,175.966,176.937,0.0,1.0,3.6399,
94.9502,3.7172,0.0,177.962,178.929,0.0,1.0,3.7172,
95.1502,3.7921,0.0,179.958,180.92,0.0,1.0,3.7921,
95.3502,3.8674,0.0,181.958,182.912,0.0,1.0,3.8674,
95.5502,3.9411,0.0,183.954,184.908,0.0,1.0,3.9411,
95.7502,4.0221,0.0,185.95,186.908,0.0,1.0,4.0221,
95.9502,4.0848,0.0,187.945,188.9,0.0,1.0,4.0848,
96.1502,4.179,0.0,189.941,190.895,0.0,1.0,4.179,
96.3502,4.2602,0.0,191.941,192.895,0.0,1.0,4.2602,
96.5502,4.342,0.0,193.937,194.891,0.0,1.0,4.342,
96.7502,4.4258,0.0,195.933,196.883,0.0,1.0,4.4258,
96.9502,4.5097,0.0,197.929,198.875,0.0,1.0,4.5097,
97.1502,4.5919,0.0,199.929,200.858,0.0,1.0,4.5919,
97.3502,4.6773,0.0,201.925,202.85,0.0,1.0,4.6773,
97.5502,4.7632,0.0,203.92,204.845,0.0,1.0,4.7632,
97.7502,4.8499,0.0,205.916,206.833,0.0,1.0,4.8499,
97.9502,4.9386,0.0,207.912,208.829,0.0,1.0,4.9386,
98.1502,5.0266,0.0,209.912,210.816,0.0,1.0,5.0266,
98.3502,5.115,0.0,211.908,212.812,0.0,1.0,5.115,
98.5502,5.2041,0.0,213.904,214.808,0.0,1.0,5.2041,
98.7502,5.2954,0.0,215.9,216.8,0.0,1.0,5.2954,
98.9502,5.3865,0.0,217.895,218.791,0.0,1.0,5.3865,
99.1502,5.4778,0.0,219.895,220.783,0.0,1.0,5.4778,
99.3502,5.5716,0.0,221.891,222.783,0.0,1.0,5.5716,
99.5502,5.6657,0.0,223.887,224.77,0.0,1.0,5.6657,
99.7502,5.76,0.0,225.883,226.77,0.0,1.0,5.76,
99.9502,5.8574,0.0,227.879,228.762,0.0,1.0,5.8574,
100.15,5.9543,0.0,229.879,230.758,0.0,1.0,5.9543,
100.35,6.0511,0.0,231.875,232.758,0.0,1.0,6.0511,
100.55,6.1517,0.0,233.87,234.754,0.0,1.0,6.1517,
100.75,6.2518,0.0,235.866,236.741,0.0,1.0,6.2518,
100.95,6.3528,0.0,237.866,238.737,0.0,1.0,6.3528,
101.15,6.4553,0.0,239.862,240.737,0.0,1.0,6.4553,
101.35,6.5617,0.0,241.858,242.741,0.0,1.0,6.5617,
101.55,6.6658,0.0,243.854,244.737,0.0,1.0,6.6658,
101.75,6.7583,0.0,245.85,246.733,0.0,1.0,6.7583,
101.95,6.8807,0.0,247.85,248.729,0.0,1.0,6.8807,
102.15,6.9878,0.0,249.845,250.72,0.0,1.0,6.9878,
102.35,7.0955,0.0,251.841,252.716,0.0,1.0,7.0955,
102.55,7.1984,0.0,253.837,254.704,0.0,1.0,7.1984,
102.75,7.3156,0.0,255.833,256.695,0.0,1.0,7.3156,
102.95,7.4291,0.0,257.833,258.683,0.0,1.0,7.4291,
103.15,7.5406,0.0,259.829,260.679,0.0,1.0,7.5406,
103.35,7.658,0.0,261.825,262.67,0.0,1.0,7.658,
103.55,7.7735,0.0,263.82,264.666,0.0,1.0,7.7735,
103.75,7.8943,0.0,265.82,266.65,0.0,1.0,7.8943,
103.95,8.0159,0.0,267.816,268.654,0.0,1.0,8.0159,
104.15,8.136,0.0,269.812,270.65,0.0,1.0,8.136,
104.35,8.2632,0.0,271.808,272.641,0.0,1.0,8.2632,
104.55,8.387,0.0,273.804,274.637,0.0,1.0,8.387,
104.75,8.5109,0.0,275.804,276.629,0.0,1.0,8.5109,
104.95,8.6379,0.0,277.8,278.629,0.0,1.0,8.6379,
105.15,8.7641,0.0,279.795,280.629,0.0,1.0,8.7641,
105.35,8.8918,0.0,281.791,282.62,0.0,1.0,8.8918,
105.55,9.0226,0.0,283.787,284.612,0.0,1.0,9.0226,
105.75,9.1557,0.0,285.787,286.608,0.0,1.0,9.1557,
105.95,9.2903,0.0,287.783,288.608,0.0,1.0,9.2903,
106.15,9.4247,0.0,289.779,290.608,0.0,1.0,9.4247,
106.35,9.564,0.0,291.775,292.6,0.0,1.0,9.564,
106.55,9.7041,0.0,293.775,294.595,0.0,1.0,9.7041,
106.75,9.8408,0.0,295.77,296.595,0.0,1.0,9.8408,
106.95,9.9745,0.0,297.766,298.591,0.0,1.0,9.9745,
107.15,10.1043,0.0,299.762,300.595,0.0,1.0,10.1043,
107.35,10.2348,0.0,301.758,302.591,0.0,1.0,10.2348,
107.55,10.3714,0.0,303.758,304.591,0.0,1.0,10.3714,
107.75,10.5064,0.0,305.754,306.587,0.0,1.0,10.5064,
107.95,10.6462,0.0,307.75,308.579,0.0,1.0,10.6462,
108.15,10.7894,0.0,309.745,310.57,0.0,1.0,10.7894,
108.35,10.9345,0.0,311.741,312.575,0.0,1.0,10.9345,
108.55,11.0877,0.0,313.741,314.566,0.0,1.0,11.0877,
108.75,11.2401,0.0,315.737,316.562,0.0,1.0,11.2401,
108.95,11.397,0.0,317.733,318.558,0.0,1.0,11.397,
109.15,11.5583,0.0,319.729,320.554,0.0,1.0,11.5583,
109.35,11.7274,0.0,321.725,322.541,0.0,1.0,11.7274,
109.55,11.8994,0.0,323.725,324.537,0.0,1.0,11.8994,
109.75,12.0827,0.0,325.72,326.533,0.0,1.0,12.0827,
109.95,12.2719,0.0,327.716,328.525,0.0,1.0,12.2719,
110.15,12.4822,0.0,329.712,330.525,0.0,1.0,12.4822,
110.35,12.7152,0.0,331.712,332.512,0.0,1.0,12.7152,
110.55,12.963,0.0,333.708,334.504,0.0,1.0,12.963,
110.75,13.2625,0.0,335.704,336.5,0.0,1.0,13.2625,
110.95,13.5869,0.0,337.7,338.5,0.0,1.0,13.5869,
111.15,13.8008,0.0,339.695,340.491,0.0,1.0,13.8008,
111.35,13.4589,0.0,341.695,342.487,0.0,1.0,13.4589,
111.55,13.3096,0.0,343.691,344.483,0.0,1.0,13.3096,
111.75,13.381,0.0,345.687,346.483,0.0,1.0,13.381,
111.95,13.5149,0.0,347.683,348.483,0.0,1.0,13.5149,
112.15,13.6706,0.0,349.679,350.483,0.0,1.0,13.6706,
112.35,13.8316,0.0,351.679,352.475,0.0,1.0,13.8316,
112.55,13.9954,0.0,353.675,354.47,0.0,1.0,13.9954,
112.75,14.1628,0.0,355.67,356.47,0.0,1.0,14.1628,
112.95,14.3305,0.0,357.666,358.475,0.0,1.0,14.3305,
113.15,14.4989,0.0,359.666,360.475,0.0,1.0,14.4989,
113.35,14.6705,0.0,361.662,362.466,0.0,1.0,14.6705,
113.55,14.841,0.0,363.658,364.458,0.0,1.0,14.841,
113.75,15.0137,0.0,365.654,366.454,0.0,1.0,15.0137,
113.95,15.1896,0.0,367.65,368.45,0.0,1.0,15.1896,
114.15,15.3678,0.0,369.65,370.437,0.0,1.0,15.3678,
114.35,15.5461,0.0,371.645,372.433,0.0,1.0,15.5461,
114.55,15.7294,0.0,373.641,374.425,0.0,1.0,15.7294,
114.75,15.9117,0.0,375.637,376.425,0.0,1.0,15.9117,
114.95,16.096,0.0,377.633,378.42,0.0,1.0,16.096,
115.15,16.2661,0.0,379.633,380.416,0.0,1.0,16.2661,
115.35,16.012,0.0,378.37,379.625,0.0,1.0,16.012,
115.55,15.6104,0.0,376.37,377.637,0.0,1.0,15.6104,
115.75,15.4066,0.0,374.375,375.637,0.0,1.0,15.4066,
115.95,15.2109,0.0,372.379,373.65,0.0,1.0,15.2109,
116.15,15.0198,0.0,370.383,371.658,0.0,1.0,15.0198,
116.35,14.8272,0.0,368.383,369.662,0.0,1.0,14.8272,
116.55,14.6433,0.0,366.387,367.675,0.0,1.0,14.6433,
116.75,14.46,0.0,364.391,365.679,0.0,1.0,14.46,
116.95,14.2779,0.0,362.395,363.687,0.0,1.0,14.2779,
117.15,14.0997,0.0,360.4,361.7,0.0,1.0,14.0997,
117.35,13.9229,0.0,358.4,359.708,0.0,1.0,13.9229,
117.55,13.7467,0.0,356.404,357.704,0.0,1.0,13.7467,
117.75,13.5735,0.0,354.408,355.712,0.0,1.0,13.5735,
117.95,13.4023,0.0,352.412,353.712,0.0,1.0,13.4023,
118.15,13.2331,0.0,350.416,351.716,0.0,1.0,13.2331,
118.35,13.0669,0.0,348.416,349.72,0.0,1.0,13.0669,
118.55,12.8997,0.0,346.42,347.725,0.0,1.0,12.8997,
118.75,12.7364,0.0,344.425,345.725,0.0,1.0,12.7364,
118.95,12.5756,0.0,342.429,343.729,0.0,1.0,12.5756,
119.15,12.4156,0.0,340.429,341.737,0.0,1.0,12.4156,
119.35,12.26,0.0,338.433,339.741,0.0,1.0,12.26,
119.55,12.1016,0.0,336.437,337.75,0.0,1.0,12.1016,
119.75,11.9551,0.0,334.441,335.75,0.0,1.0,11.9551,
119.95,11.7983,0.0,332.445,333.758,0.0,1.0,11.7983,
120.15,11.6482,0.0,330.445,331.77,0.0,1.0,11.6482,
120.35,11.4982,0.0,328.45,329.779,0.0,1.0,11.4982,
120.55,11.3493,0.0,326.454,327.783,0.0,1.0,11.3493,
120.75,11.2031,0.0,324.458,325.791,0.0,1.0,11.2031,
120.95,11.0589,0.0,322.462,323.8,0.0,1.0,11.0589,
121.15,10.9159,0.0,320.462,321.808,0.0,1.0,10.9159,
121.35,10.7727,0.0,318.466,319.812,0.0,1.0,10.7727,
121.55,10.6322,0.0,316.47,317.82,0.0,1.0,10.6322,
121.75,10.493,0.0,314.475,315.829,0.0,1.0,10.493,
121.95,10.3566,0.0,312.475,313.837,0.0,1.0,10.3566,
122.15,10.218,0.0,310.479,311.841,0.0,1.0,10.218,
122.35,10.0836,0.0,308.483,309.841,0.0,1.0,10.0836,
122.55,9.9501,0.0,306.487,307.854,0.0,1.0,9.9501,
122.75,9.8161,0.0,304.491,305.854,0.0,1.0,9.8161,
122.95,9.6759,0.0,302.491,303.866,0.0,1.0,9.6759,
123.15,9.4808,0.0,300.495,301.87,0.0,1.0,9.4808,
123.35,8.9933,0.0,298.5,299.87,0.0,1.0,8.9933,
123.55,7.4477,0.0,296.504,297.883,0.0,1.0,7.4477,
123.75,6.2284,0.0,294.508,295.883,0.0,1.0,6.2284,
123.95,8.1165,0.0,292.508,293.883,0.0,1.0,8.1165,
124.15,8.5683,0.0,290.512,291.883,0.0,1.0,8.5683,
124.35,8.5794,0.0,288.516,289.895,0.0,1.0,8.5794,
124.55,8.5186,0.0,286.52,287.891,0.0,1.0,8.5186,
124.75,8.4328,0.0,284.525,285.904,0.0,1.0,8.4328,
124.95,8.3382,0.0,282.525,283.908,0.0,1.0,8.3382,
125.15,8.2368,0.0,280.529,281.916,0.0,1.0,8.2368,
125.35,8.1321,0.0,278.533,279.92,0.0,1.0,8.1321,
125.55,8.0284,0.0,276.537,277.925,0.0,1.0,8.0284,
125.75,7.921,0.0,274.537,275.929,0.0,1.0,7.921,
125.95,7.8139,0.0,272.541,273.941,0.0,1.0,7.8139,
126.15,7.708,0.0,270.545,271.941,0.0,1.0,7.708,
126.35,7.6012,0.0,268.55,269.95,0.0,1.0,7.6012,
126.55,7.4978,0.0,266.554,267.954,0.0,1.0,7.4978,
126.75,7.3906,0.0,264.554,265.958,0.0,1.0,7.3906,
126.95,7.2846,0.0,262.558,263.975,0.0,1.0,7.2846,
127.15,7.1817,0.0,260.562,261.983,0.0,1.0,7.1817,
127.35,7.0755,0.0,258.566,259.995,0.0,1.0,7.0755,
127.55,6.9744,0.0,256.57,258.0,0.0,1.0,6.9744,
127.75,6.8702,0.0,254.57,256.012,0.0,1.0,6.8702,
127.95,6.7697,0.0,252.575,254.02,0.0,1.0,6.7697,
128.15,6.6697,0.0,250.579,252.037,0.0,1.0,6.6697,
128.35,6.5678,0.0,248.583,250.029,0.0,1.0,6.5678,
128.55,6.4682,0.0,246.583,248.05,0.0,1.0,6.4682,
128.75,6.3692,0.0,244.587,246.058,0.0,1.0,6.3692,
128.95,6.2731,0.0,242.591,244.066,0.0,1.0,6.2731,
129.15,6.1758,0.0,240.595,242.066,0.0,1.0,6.1758,
129.35,6.0806,0.0,238.6,240.066,0.0,1.0,6.0806,
129.55,5.984,0.0,236.6,238.079,0.0,1.0,5.984,
129.75,5.8897,0.0,234.604,236.079,0.0,1.0,5.8897,
129.95,5.7972,0.0,232.608,234.087,0.0,1.0,5.7972,
130.15,5.7066,0.0,230.612,232.095,0.0,1.0,5.7066,
130.35,5.6156,0.0,228.616,230.095,0.0,1.0,5.6156,
130.55,5.5234,0.0,226.616,228.1,0.0,1.0,5.5234,
130.75,5.4358,0.0,224.62,226.116,0.0,1.0,5.4358,
130.95,5.3446,0.0,222.625,224.12,0.0,1.0,5.3446,
131.15,5.2561,0.0,220.629,222.129,0.0,1.0,5.2561,
131.35,5.1699,0.0,218.629,220.137,0.0,1.0,5.1699,
131.55,5.0843,0.0,216.633,218.145,0.0,1.0,5.0843,
131.75,4.9966,0.0,214.637,216.154,0.0,1.0,4.9966,
131.95,4.9114,0.0,212.641,214.166,0.0,1.0,4.9114,
132.15,4.8295,0.0,210.645,212.17,0.0,1.0,4.8295,
132.35,4.7478,0.0,208.645,210.179,0.0,1.0,4.7478,
132.55,4.6671,0.0,206.65,208.195,0.0,1.0,4.6671,
132.75,4.5854,0.0,204.654,206.204,0.0,1.0,4.5854,
132.95,4.5064,0.0,202.658,204.216,0.0,1.0,4.5064,
133.15,4.4269,0.0,200.662,202.22,0.0,1.0,4.4269,
133.35,4.3487,0.0,198.662,200.233,0.0,1.0,4.3487,
133.55,4.2726,0.0,196.666,198.25,0.0,1.0,4.2726,
133.75,4.1963,0.0,194.67,196.262,0.0,1.0,4.1963,
133.95,4.1236,0.0,192.675,194.27,0.0,1.0,4.1236,
134.15,4.0482,0.0,190.679,192.275,0.0,1.0,4.0482,
134.35,3.9748,0.0,188.679,190.287,0.0,1.0,3.9748,
134.55,3.9035,0.0,186.683,188.291,0.0,1.0,3.9035,
134.75,3.8313,0.0,184.687,186.304,0.0,1.0,3.8313,
134.95,3.7601,0.0,182.691,184.312,0.0,1.0,3.7601,
135.15,3.6911,0.0,180.691,182.312,0.0,1.0,3.6911,
135.35,3.6211,0.0,178.695,180.325,0.0,1.0,3.6211,
135.55,3.5532,0.0,176.7,178.333,0.0,1.0,3.5532,
135.75,3.4854,0.0,174.704,176.354,0.0,1.0,3.4854,
135.95,3.4203,0.0,172.708,174.358,0.0,1.0,3.4203,
136.15,3.3544,0.0,170.708,172.37,0.0,1.0,3.3544,
136.35,3.2894,0.0,168.712,170.375,0.0,1.0,3.2894,
136.55,3.2251,0.0,166.716,168.387,0.0,1.0,3.2251,
136.75,3.1629,0.0,164.72,166.395,0.0,1.0,3.1629,
136.95,3.1005,0.0,162.725,164.408,0.0,1.0,3.1005,
137.15,3.0395,0.0,160.725,162.416,0.0,1.0,3.0395,
137.35,2.9804,0.0,158.729,160.429,0.0,1.0,2.9804,
137.55,2.9209,0.0,156.733,158.441,0.0,1.0,2.9209,
137.75,2.8636,0.0,154.737,156.45,0.0,1.0,2.8636,
137.95,2.8068,0.0,152.737,154.462,0.0,1.0,2.8068,
138.15,2.751,0.0,150.741,152.479,0.0,1.0,2.751,
138.35,2.6955,0.0,148.745,150.495,0.0,1.0,2.6955,
138.55,2.6433,0.0,146.75,148.512,0.0,1.0,2.6433,
138.75,2.5906,0.0,144.754,146.525,0.0,1.0,2.5906,
138.95,2.54,0.0,142.754,144.537,0.0,1.0,2.54,
139.15,2.4896,0.0,140.758,142.554,0.0,1.0,2.4896,
139.35,2.4396,0.0,138.762,140.57,0.0,1.0,2.4396,
139.55,2.3893,0.0,136.766,138.587,0.0,1.0,2.3893,
139.75,2.3393,0.0,134.77,136.595,0.0,1.0,2.3393,
139.95,2.2892,0.0,132.77,134.608,0.0,1.0,2.2892,
140.15,2.2399,0.0,130.775,132.625,0.0,1.0,2.2399,
140.35,2.1916,0.0,128.779,130.633,0.0,1.0,2.1916,
140.55,2.1438,0.0,126.783,128.65,0.0,1.0,2.1438,
140.75,2.0962,0.0,124.783,126.666,0.0,1.0,2.0962,
140.95,2.0478,0.0,122.787,124.679,0.0,1.0,2.0478,
141.15,2.0029,0.0,120.791,122.7,0.0,1.0,2.0029,
141.35,1.9557,0.0,118.795,120.716,0.0,1.0,1.9557,
141.55,1.9132,0.0,116.8,118.737,0.0,1.0,1.9132,
141.75,1.8706,0.0,114.8,116.758,0.0,1.0,1.8706,
141.95,1.8288,0.0,112.804,114.775,0.0,1.0,1.8288,
142.15,1.7883,0.0,110.808,112.804,0.0,1.0,1.7883,
142.35,1.7475,0.0,108.812,110.825,0.0,1.0,1.7475,
142.55,1.7107,0.0,106.816,108.85,0.0,1.0,1.7107,
142.75,1.6714,0.0,104.816,106.87,0.0,1.0,1.6714,
142.95,1.6386,0.0,102.82,104.9,0.0,1.0,1.6386,
143.15,1.6035,0.0,100.825,102.925,0.0,1.0,1.6035,
143.35,1.572,0.0,98.829,100.945,0.0,1.0,1.572,
143.55,1.544,0.0,96.833,98.983,0.0,1.0,1.544,
143.75,1.5129,0.0,94.833,97.008,0.0,1.0,1.5129,
143.95,1.4853,0.0,92.837,95.045,0.0,1.0,1.4853,
144.15,1.462,0.0,90.841,93.079,0.0,1.0,1.462,
144.35,1.4416,0.0,88.845,91.116,0.0,1.0,1.4416,
144.55,1.4266,0.0,86.845,89.154,0.0,1.0,1.4266,
144.75,1.4165,0.0,84.85,87.2,0.0,1.0,1.4165,
144.95,1.4142,0.0,82.854,85.245,0.0,1.0,1.4142,
145.15,1.4156,0.0,80.858,83.291,0.0,1.0,1.4156,
145.35,1.4274,0.0,78.862,81.341,0.0,1.0,1.4274,
145.55,1.4553,0.0,76.862,79.387,0.0,1.0,1.4553,
145.75,1.5032,0.0,74.866,77.45,0.0,1.0,1.5032,
145.95,1.5788,0.0,72.87,75.508,0.0,1.0,1.5788,
146.15,1.509,0.0,70.875,73.587,0.0,1.0,1.509,
146.35,1.1722,0.0,68.879,71.862,0.0,1.0,1.1722,
146.55,1.0574,0.0,66.879,70.395,0.0,1.0,1.0574,
146.75,0.977,0.0,64.883,69.15,0.0,1.0,0.977,
146.95,0.9028,0.0,62.887,68.079,0.0,1.0,0.9028,
147.15,0.8324,0.0,60.891,67.162,0.0,1.0,0.8324,
147.35,0.7623,0.0,58.891,66.383,0.0,1.0,0.7623,
147.55,0.6942,0.0,56.895,65.712,0.0,1.0,0.6942,
147.75,0.6278,0.0,54.9,65.141,0.0,1.0,0.6278,
147.95,0.5617,0.0,52.904,64.654,0.0,1.0,0.5617,
148.15,0.4976,0.0,50.908,64.233,0.0,1.0,0.4976,
148.35,0.4342,0.0,48.908,63.87,0.0,1.0,0.4342,
148.55,0.371,0.0,46.912,63.558,0.0,1.0,0.371,
148.75,0.3078,0.0,44.916,63.291,0.0,1.0,0.3078,
148.95,0.245,0.0,42.92,63.062,0.0,1.0,0.245,
149.15,0.1837,0.0,40.925,62.862,0.0,1.0,0.1837,
149.35,0.1218,0.0,38.925,62.691,0.0,1.0,0.1218,
149.55,0.0607,0.0,36.929,62.55,0.0,1.0,0.0607,
149.75,0.0,0.0,34.933,62.416,0.0,1.0,0.0,
149.95,-0.0606,0.0,32.937,62.3,0.0,1.0,-0.0606,
150.15,-0.121,0.0,30.937,62.204,0.0,1.0,-0.121,
150.5975,-0.15,0.0,30.0,62.025,0.0,1.0,-0.15,
151.264,-0.1492,0.0,30.0,61.833,0.0,1.0,-0.1492,
151.931,-0.1479,0.0,30.0,61.704,0.0,1.0,-0.1479,
152.5975,-0.1458,0.0,30.0,61.6,0.0,1.0,-0.1458,
153.264,-0.1448,0.0,30.0,61.52,0.0,1.0,-0.1448,
153.931,-0.1424,0.0,30.0,61.458,0.0,1.0,-0.1424,
154.5975,-0.1404,0.0,30.0,61.395,0.0,1.0,-0.1404,
155.256,-0.1341,0.0,30.033,61.341,0.0,1.0,-0.1341,
155.456,-0.0772,0.0,32.029,61.325,0.0,1.0,-0.0772,
155.656,-0.016,0.0,34.025,61.312,0.0,1.0,-0.016,
155.856,0.0446,0.0,36.02,61.295,0.0,1.0,0.0446,
156.056,0.105,0.0,38.016,61.279,0.0,1.0,0.105,
156.256,0.166,0.0,40.016,61.266,0.0,1.0,0.166,
156.456,0.2266,0.0,42.012,61.25,0.0,1.0,0.2266,
156.656,0.2876,0.0,44.008,61.237,0.0,1.0,0.2876,
156.856,0.3483,0.0,46.004,61.216,0.0,1.0,0.3483,
157.056,0.4091,0.0,48.004,61.208,0.0,1.0,0.4091,
157.256,0.4701,0.0,50.0,61.187,0.0,1.0,0.4701,
157.456,0.5315,0.0,51.995,61.175,0.0,1.0,0.5315,
157.656,0.5915,0.0,53.991,61.162,0.0,1.0,0.5915,
157.856,0.652,0.0,55.987,61.15,0.0,1.0,0.652,
158.056,0.7135,0.0,57.987,61.133,0.0,1.0,0.7135,
158.256,-1.8092,0.0,59.983,61.641,0.0,1.0,-1.8092,
158.456,0.0007,0.0,61.979,63.55,0.0,1.0,0.0007,
158.656,0.2238,0.0,63.975,65.516,0.0,1.0,0.2238,
158.856,0.2859,0.0,65.97,67.487,0.0,1.0,0.2859,
159.056,0.34,0.0,67.97,69.458,0.0,1.0,0.34,
159.256,0.3904,0.0,69.966,71.429,0.0,1.0,0.3904,
159.456,0.4419,0.0,71.962,73.408,0.0,1.0,0.4419,
159.656,0.4922,0.0,73.958,75.387,0.0,1.0,0.4922,
159.856,0.5437,0.0,75.958,77.366,0.0,1.0,0.5437,
160.056,0.5953,0.0,77.954,79.35,0.0,1.0,0.5953,
160.256,0.6468,0.0,79.95,81.329,0.0,1.0,0.6468,
160.456,0.698,0.0,81.945,83.316,0.0,1.0,0.698,
160.656,0.7497,0.0,83.941,85.295,0.0,1.0,0.7497,
160.856,0.8043,0.0,85.941,87.279,0.0,1.0,0.8043,
161.056,0.8531,0.0,87.937,89.254,0.0,1.0,0.8531,
161.256,0.9056,0.0,89.933,91.233,0.0,1.0,0.9056,
161.456,0.9478,0.0,91.929,93.22,0.0,1.0,0.9478,
161.656,1.0024,0.0,93.925,95.2,0.0,1.0,1.0024,
161.856,1.0609,0.0,95.925,97.179,0.0,1.0,1.0609,
162.056,1.1143,0.0,97.92,99.162,0.0,1.0,1.1143,
162.256,1.1683,0.0,99.916,101.15,0.0,1.0,1.1683,
162.456,1.216,0.0,101.912,103.133,0.0,1.0,1.216,
162.656,1.2733,0.0,103.908,105.12,0.0,1.0,1.2733,
162.856,1.332,0.0,105.908,107.104,0.0,1.0,1.332,
163.056,1.3886,0.0,107.904,109.087,0.0,1.0,1.3886,
163.256,1.444,0.0,109.9,111.079,0.0,1.0,1.444,
163.456,1.4932,0.0,111.895,113.062,0.0,1.0,1.4932,
163.656,1.5555,0.0,113.895,115.054,0.0,1.0,1.5555,
163.856,1.6167,0.0,115.891,117.041,0.0,1.0,1.6167,
164.056,1.6744,0.0,117.887,119.025,0.0,1.0,1.6744,
164.256,1.7331,0.0,119.883,121.016,0.0,1.0,1.7331,
164.456,1.7942,0.0,121.879,123.008,0.0,1.0,1.7942,
164.656,1.8473,0.0,123.879,124.991,0.0,1.0,1.8473,
164.856,1.9085,0.0,125.875,126.983,0.0,1.0,1.9085,
165.056,1.9718,0.0,127.87,128.975,0.0,1.0,1.9718,
165.256,2.0317,0.0,129.866,130.966,0.0,1.0,2.0317,
165.456,2.0917,0.0,131.862,132.954,0.0,1.0,2.0917,
165.656,2.1531,0.0,133.862,134.95,0.0,1.0,2.1531,
165.856,2.2162,0.0,135.858,136.941,0.0,1.0,2.2162,
166.056,2.2739,0.0,137.854,138.937,0.0,1.0,2.2739,
166.256,2.3448,0.0,139.85,140.933,0.0,1.0,2.3448,
166.456,2.4078,0.0,141.85,142.92,0.0,1.0,2.4078,
166.656,2.4764,0.0,143.845,144.904,0.0,1.0,2.4764,
166.856,2.5486,0.0,145.841,146.904,0.0,1.0,2.5486,
167.056,2.6199,0.0,147.837,148.887,0.0,1.0,2.6199,
167.256,2.691,0.0,149.833,150.879,0.0,1.0,2.691,
167.456,2.7591,0.0,151.833,152.862,0.0,1.0,2.7591,
167.656,2.828,0.0,153.829,154.854,0.0,1.0,2.828,
167.856,2.8992,0.0,155.825,156.845,0.0,1.0,2.8992,
168.056,2.9647,0.0,157.82,158.841,0.0,1.0,2.9647,
168.256,3.0343,0.0,159.816,160.829,0.0,1.0,3.0343,
168.456,3.1068,0.0,161.816,162.825,0.0,1.0,3.1068,
168.656,3.1756,0.0,163.812,164.816,0.0,1.0,3.1756,
168.856,3.2443,0.0,165.808,166.812,0.0,1.0,3.2443,
169.056,3.3103,0.0,167.804,168.808,0.0,1.0,3.3103,
169.256,3.3829,0.0,169.804,170.795,0.0,1.0,3.3829,
169.456,3.4594,0.0,171.8,172.791,0.0,1.0,3.4594,
169.656,3.5348,0.0,173.795,174.783,0.0,1.0,3.5348,
169.856,3.61,0.0,175.791,176.779,0.0,1.0,3.61,
170.056,3.6843,0.0,177.787,178.766,0.0,1.0,3.6843,
170.256,3.7607,0.0,179.787,180.762,0.0,1.0,3.7607,
170.456,3.8362,0.0,181.783,182.75,0.0,1.0,3.8362,
170.656,3.903,0.0,183.779,184.745,0.0,1.0,3.903,
170.856,3.9869,0.0,185.775,186.745,0.0,1.0,3.9869,
171.056,4.0636,0.0,187.77,188.741,0.0,1.0,4.0636,
171.256,4.1405,0.0,189.77,190.733,0.0,1.0,4.1405,
171.456,4.2168,0.0,191.766,192.729,0.0,1.0,4.2168,
171.656,4.3042,0.0,193.762,194.729,0.0,1.0,4.3042,
171.856,4.3864,0.0,195.758,196.716,0.0,1.0,4.3864,
172.056,4.468,0.0,197.754,198.712,0.0,1.0,4.468,
172.256,4.5514,0.0,199.754,200.695,0.0,1.0,4.5514,
172.456,4.6339,0.0,201.75,202.687,0.0,1.0,4.6339,
172.656,4.7185,0.0,203.745,204.679,0.0,1.0,4.7185,
172.856,4.8041,0.0,205.741,206.67,0.0,1.0,4.8041,
173.056,4.8887,0.0,207.741,208.662,0.0,1.0,4.8887,
173.256,4.9771,0.0,209.737,210.654,0.0,1.0,4.9771,
173.456,5.0648,0.0,211.733,212.645,0.0,1.0,5.0648,
173.656,5.1514,0.0,213.729,214.641,0.0,1.0,5.1514,
173.856,5.2419,0.0,215.725,216.637,0.0,1.0,5.2419,
174.056,5.3297,0.0,217.725,218.629,0.0,1.0,5.3297,
174.256,5.42,0.0,219.72,220.62,0.0,1.0,5.42,
174.456,5.5118,0.0,221.716,222.62,0.0,1.0,5.5118,
174.656,5.6039,0.0,223.712,224.612,0.0,1.0,5.6039,
174.856,5.6971,0.0,225.708,226.604,0.0,1.0,5.6971,
175.056,5.7935,0.0,227.708,228.6,0.0,1.0,5.7935,
175.256,5.8877,0.0,229.704,230.591,0.0,1.0,5.8877,
175.456,5.9838,0.0,231.7,232.591,0.0,1.0,5.9838,
175.656,6.0813,0.0,233.695,234.583,0.0,1.0,6.0813,
175.856,6.179,0.0,235.695,236.583,0.0,1.0,6.179,
176.056,6.279,0.0,237.691,238.575,0.0,1.0,6.279,
176.256,6.3794,0.0,239.687,240.575,0.0,1.0,6.3794,
176.456,6.4814,0.0,241.683,242.57,0.0,1.0,6.4814,
176.656,6.5832,0.0,243.679,244.575,0.0,1.0,6.5832,
176.856,6.6866,0.0,245.679,246.57,0.0,1.0,6.6866,
177.056,6.7907,0.0,247.675,248.562,0.0,1.0,6.7907,
177.256,6.897,0.0,249.67,250.558,0.0,1.0,6.897,
177.456,7.0009,0.0,251.666,252.55,0.0,1.0,7.0009,
177.656,7.1077,0.0,253.662,254.545,0.0,1.0,7.1077,
177.856,7.2161,0.0,255.662,256.533,0.0,1.0,7.2161,
178.056,7.3258,0.0,257.658,258.525,0.0,1.0,7.3258,
178.256,7.4333,0.0,259.654,260.512,0.0,1.0,7.4333,
178.456,7.5462,0.0,261.65,262.508,0.0,1.0,7.5462,
178.656,7.6585,0.0,263.65,264.5,0.0,1.0,7.6585,
178.856,7.7743,0.0,265.645,266.491,0.0,1.0,7.7743,
179.056,7.8899,0.0,267.641,268.487,0.0,1.0,7.8899,
179.256,8.007,0.0,269.637,270.483,0.0,1.0,8.007,
179.456,8.1251,0.0,271.633,272.479,0.0,1.0,8.1251,
179.656,8.2434,0.0,273.633,274.466,0.0,1.0,8.2434,
179.856,8.3654,0.0,275.629,276.47,0.0,1.0,8.3654,
180.056,8.4865,0.0,277.625,278.466,0.0,1.0,8.4865,
180.256,8.6088,0.0,279.62,280.462,0.0,1.0,8.6088,
180.456,8.7327,0.0,281.616,282.454,0.0,1.0,8.7327,
180.656,8.861,0.0,283.616,284.45,0.0,1.0,8.861,
180.856,8.9895,0.0,285.612,286.441,0.0,1.0,8.9895,
181.056,9.1176,0.0,287.608,288.445,0.0,1.0,9.1176,
181.256,9.2487,0.0,289.604,290.441,0.0,1.0,9.2487,
181.456,9.3771,0.0,291.6,292.437,0.0,1.0,9.3771,
181.656,9.5153,0.0,293.6,294.429,0.0,1.0,9.5153,
181.856,9.6493,0.0,295.595,296.433,0.0,1.0,9.6493,
182.056,9.7823,0.0,297.591,298.429,0.0,1.0,9.7823,
182.256,9.9108,0.0,299.587,300.425,0.0,1.0,9.9108,
182.456,10.0402,0.0,301.587,302.429,0.0,1.0,10.0402,
182.656,10.1718,0.0,303.583,304.425,0.0,1.0,10.1718,
182.856,10.3104,0.0,305.579,306.42,0.0,1.0,10.3104,
183.056,10.4484,0.0,307.575,308.416,0.0,1.0,10.4484,
183.256,10.5929,0.0,309.57,310.408,0.0,1.0,10.5929,
183.456,10.7397,0.0,311.57,312.412,0.0,1.0,10.7397,
183.656,10.8896,0.0,313.566,314.404,0.0,1.0,10.8896,
183.856,11.0412,0.0,315.562,316.4,0.0,1.0,11.0412,
184.056,11.1977,0.0,317.558,318.395,0.0,1.0,11.1977,
184.256,11.3604,0.0,319.554,320.387,0.0,1.0,11.3604,
184.456,11.5256,0.0,321.554,322.383,0.0,1.0,11.5256,
184.656,11.6985,0.0,323.55,324.366,0.0,1.0,11.6985,
184.856,11.8799,0.0,325.545,326.366,0.0,1.0,11.8799,
185.056,12.0735,0.0,327.541,328.362,0.0,1.0,12.0735,
185.256,12.2805,0.0,329.541,330.354,0.0,1.0,12.2805,
185.456,12.5149,0.0,331.537,332.35,0.0,1.0,12.5149,
185.656,12.7491,0.0,333.533,334.341,0.0,1.0,12.7491,
185.856,13.0535,0.0,335.529,336.337,0.0,1.0,13.0535,
186.056,13.3775,0.0,337.525,338.329,0.0,1.0,13.3775,
186.256,13.5612,0.0,339.525,340.329,0.0,1.0,13.5612,
186.456,13.2681,0.0,341.52,342.325,0.0,1.0,13.2681,
186.656,13.1092,0.0,343.516,344.32,0.0,1.0,13.1092,
186.856,13.1775,0.0,345.512,346.316,0.0,1.0,13.1775,
187.056,13.3109,0.0,347.508,348.32,0.0,1.0,13.3109,
187.256,13.4679,0.0,349.508,350.316,0.0,1.0,13.4679,
187.456,13.6326,0.0,351.504,352.316,0.0,1.0,13.6326,
187.656,13.7934,0.0,353.5,354.308,0.0,1.0,13.7934,
187.856,13.9607,0.0,355.495,356.308,0.0,1.0,13.9607,
188.056,14.1274,0.0,357.495,358.308,0.0,1.0,14.1274,
188.256,14.2953,0.0,359.491,360.304,0.0,1.0,14.2953,
188.456,14.4675,0.0,361.487,362.304,0.0,1.0,14.4675,
188.656,14.6386,0.0,363.483,364.295,0.0,1.0,14.6386,
188.856,14.8124,0.0,365.479,366.291,0.0,1.0,14.8124,
189.056,14.9889,0.0,367.479,368.283,0.0,1.0,14.9889,
189.256,15.1661,0.0,369.475,370.275,0.0,1.0,15.1661,
189.456,15.3458,0.0,371.47,372.27,0.0,1.0,15.3458,
189.656,15.526,0.0,373.466,374.262,0.0,1.0,15.526,
189.856,15.7108,0.0,375.462,376.258,0.0,1.0,15.7108,
190.056,15.8949,0.0,377.462,378.258,0.0,1.0,15.8949,
190.256,16.0809,0.0,379.458,380.25,0.0,1.0,16.0809,
190.306,16.1281,0.0,379.958,380.75,0.0,1.0,16.1281,