File: Chapter4_Crystallinity-measurement/data/DSC/HDPE_1.csv
Time,Unsubtracted Heat Flow,Baseline Heat Flow,Program Temperature,Sample Temperature,Approx. Gas Flow,Heat Flow Calibration,Uncorrected Heat Flow,
0.0,-6.1544,0.0,30.0,25.845,0.0,1.0,-6.1544,
0.833333,1.6851,0.0,30.0,31.204,0.0,1.0,1.6851,
1.666667,1.6844,0.0,30.0,31.208,0.0,1.0,1.6844,
2.151167,1.3929,0.0,30.741,31.675,0.0,1.0,1.3929,
2.401167,1.9771,0.0,31.991,32.895,0.0,1.0,1.9771,
2.651167,2.024,0.0,33.237,34.125,0.0,1.0,2.024,
2.901167,2.0855,0.0,34.487,35.358,0.0,1.0,2.0855,
3.151167,2.1478,0.0,35.737,36.591,0.0,1.0,2.1478,
3.401167,2.2107,0.0,36.983,37.825,0.0,1.0,2.2107,
3.651167,2.2744,0.0,38.233,39.062,0.0,1.0,2.2744,
3.901167,2.3386,0.0,39.479,40.3,0.0,1.0,2.3386,
4.151167,2.3883,0.0,40.729,41.529,0.0,1.0,2.3883,
4.401167,2.448,0.0,41.975,42.77,0.0,1.0,2.448,
4.651167,2.5066,0.0,43.225,44.004,0.0,1.0,2.5066,
4.901167,2.5636,0.0,44.47,45.241,0.0,1.0,2.5636,
5.151167,2.6166,0.0,45.72,46.483,0.0,1.0,2.6166,
5.401167,2.6719,0.0,46.966,47.72,0.0,1.0,2.6719,
5.651167,2.7298,0.0,48.216,48.962,0.0,1.0,2.7298,
5.901167,2.7857,0.0,49.462,50.195,0.0,1.0,2.7857,
6.151167,2.8371,0.0,50.712,51.437,0.0,1.0,2.8371,
6.401167,2.8934,0.0,51.958,52.675,0.0,1.0,2.8934,
6.651167,2.9512,0.0,53.208,53.916,0.0,1.0,2.9512,
6.901167,3.01,0.0,54.454,55.162,0.0,1.0,3.01,
7.151167,3.0688,0.0,55.704,56.404,0.0,1.0,3.0688,
7.401167,3.1274,0.0,56.95,57.641,0.0,1.0,3.1274,
7.651167,3.1846,0.0,58.2,58.887,0.0,1.0,3.1846,
7.901167,3.2444,0.0,59.445,60.129,0.0,1.0,3.2444,
8.151167,3.3016,0.0,60.695,61.37,0.0,1.0,3.3016,
8.401167,3.3605,0.0,61.941,62.612,0.0,1.0,3.3605,
8.651167,3.4171,0.0,63.191,63.862,0.0,1.0,3.4171,
8.901167,3.4762,0.0,64.437,65.1,0.0,1.0,3.4762,
9.151167,3.5396,0.0,65.687,66.345,0.0,1.0,3.5396,
9.401167,3.5987,0.0,66.933,67.595,0.0,1.0,3.5987,
9.651167,3.6568,0.0,68.183,68.837,0.0,1.0,3.6568,
9.901167,3.7134,0.0,69.429,70.079,0.0,1.0,3.7134,
10.1512,3.7705,0.0,70.679,71.329,0.0,1.0,3.7705,
10.4012,3.8342,0.0,71.925,72.575,0.0,1.0,3.8342,
10.6512,3.8969,0.0,73.175,73.82,0.0,1.0,3.8969,
10.9012,3.9582,0.0,74.42,75.066,0.0,1.0,3.9582,
11.1512,4.0131,0.0,75.67,76.316,0.0,1.0,4.0131,
11.4012,4.0727,0.0,76.916,77.562,0.0,1.0,4.0727,
11.6512,4.1339,0.0,78.166,78.808,0.0,1.0,4.1339,
11.9012,4.1956,0.0,79.416,80.054,0.0,1.0,4.1956,
12.1512,4.2578,0.0,80.662,81.304,0.0,1.0,4.2578,
12.4012,4.3199,0.0,81.912,82.55,0.0,1.0,4.3199,
12.6512,4.3873,0.0,83.158,83.795,0.0,1.0,4.3873,
12.9012,4.4479,0.0,84.408,85.041,0.0,1.0,4.4479,
13.1512,4.5053,0.0,85.654,86.291,0.0,1.0,4.5053,
13.4012,4.5694,0.0,86.904,87.52,0.0,1.0,4.5694,
13.6512,4.6372,0.0,88.15,88.77,0.0,1.0,4.6372,
13.9012,4.7029,0.0,89.4,90.008,0.0,1.0,4.7029,
14.1512,4.7676,0.0,90.645,91.254,0.0,1.0,4.7676,
14.4012,4.8351,0.0,91.895,92.5,0.0,1.0,4.8351,
14.6512,4.9004,0.0,93.141,93.745,0.0,1.0,4.9004,
14.9012,4.9677,0.0,94.391,94.991,0.0,1.0,4.9677,
15.1512,5.0363,0.0,95.637,96.229,0.0,1.0,5.0363,
15.4012,5.1023,0.0,96.887,97.475,0.0,1.0,5.1023,
15.6512,5.1695,0.0,98.133,98.725,0.0,1.0,5.1695,
15.9012,5.2441,0.0,99.383,99.966,0.0,1.0,5.2441,
16.1512,5.32,0.0,100.629,101.212,0.0,1.0,5.32,
16.4012,5.387,0.0,101.879,102.462,0.0,1.0,5.387,
16.6512,5.4605,0.0,103.125,103.704,0.0,1.0,5.4605,
16.9012,5.5345,0.0,104.375,104.945,0.0,1.0,5.5345,
17.1512,5.6151,0.0,105.62,106.191,0.0,1.0,5.6151,
17.4012,5.6944,0.0,106.87,107.437,0.0,1.0,5.6944,
17.6512,5.775,0.0,108.116,108.679,0.0,1.0,5.775,
17.9012,5.8628,0.0,109.366,109.925,0.0,1.0,5.8628,
18.1512,5.9566,0.0,110.612,111.17,0.0,1.0,5.9566,
18.4012,6.0544,0.0,111.862,112.416,0.0,1.0,6.0544,
18.6512,6.1681,0.0,113.108,113.662,0.0,1.0,6.1681,
18.9012,6.2898,0.0,114.358,114.904,0.0,1.0,6.2898,
19.1512,6.4165,0.0,115.604,116.15,0.0,1.0,6.4165,
19.4012,6.5748,0.0,116.854,117.391,0.0,1.0,6.5748,
19.6512,6.7451,0.0,118.1,118.641,0.0,1.0,6.7451,
19.9012,6.9585,0.0,119.35,119.883,0.0,1.0,6.9585,
20.1512,7.217,0.0,120.595,121.133,0.0,1.0,7.217,
20.4012,7.563,0.0,121.845,122.375,0.0,1.0,7.563,
20.6512,8.0504,0.0,123.091,123.612,0.0,1.0,8.0504,
20.9012,8.7896,0.0,124.341,124.858,0.0,1.0,8.7896,
21.1512,9.7114,0.0,125.591,126.104,0.0,1.0,9.7114,
21.4012,10.9023,0.0,126.837,127.345,0.0,1.0,10.9023,
21.6512,12.1116,0.0,128.087,128.591,0.0,1.0,12.1116,
21.9012,11.3661,0.0,129.333,129.837,0.0,1.0,11.3661,
22.1512,6.8283,0.0,130.583,131.091,0.0,1.0,6.8283,
22.4012,6.7596,0.0,131.829,132.337,0.0,1.0,6.7596,
22.6512,6.8269,0.0,133.079,133.583,0.0,1.0,6.8269,
22.9012,6.9103,0.0,134.325,134.829,0.0,1.0,6.9103,
23.1512,6.9844,0.0,135.575,136.075,0.0,1.0,6.9844,
23.4012,7.0499,0.0,136.82,137.325,0.0,1.0,7.0499,
23.6512,7.1173,0.0,138.07,138.575,0.0,1.0,7.1173,
23.9012,7.1729,0.0,139.316,139.825,0.0,1.0,7.1729,
24.1512,7.2342,0.0,140.566,141.075,0.0,1.0,7.2342,
24.4012,7.3037,0.0,141.812,142.316,0.0,1.0,7.3037,
24.6512,7.3641,0.0,143.062,143.562,0.0,1.0,7.3641,
24.9012,7.4237,0.0,144.308,144.804,0.0,1.0,7.4237,
25.1512,7.4779,0.0,145.558,146.054,0.0,1.0,7.4779,
25.4012,7.5434,0.0,146.804,147.295,0.0,1.0,7.5434,
25.6512,7.6073,0.0,148.054,148.541,0.0,1.0,7.6073,
25.9012,7.6657,0.0,149.3,149.791,0.0,1.0,7.6657,
26.1512,7.7277,0.0,150.55,151.037,0.0,1.0,7.7277,
26.4012,7.7903,0.0,151.795,152.283,0.0,1.0,7.7903,
26.6512,7.8522,0.0,153.045,153.525,0.0,1.0,7.8522,
26.9012,7.913,0.0,154.291,154.775,0.0,1.0,7.913,
27.1512,7.9783,0.0,155.541,156.025,0.0,1.0,7.9783,
27.4012,8.0372,0.0,156.787,157.27,0.0,1.0,8.0372,
27.6512,8.0968,0.0,158.037,158.52,0.0,1.0,8.0968,
27.9012,8.1613,0.0,159.283,159.766,0.0,1.0,8.1613,
28.1512,8.2244,0.0,160.533,161.012,0.0,1.0,8.2244,
28.4012,8.284,0.0,161.779,162.258,0.0,1.0,8.284,
28.6512,8.3439,0.0,163.029,163.508,0.0,1.0,8.3439,
28.9012,8.4048,0.0,164.275,164.758,0.0,1.0,8.4048,
29.1512,8.4648,0.0,165.525,166.008,0.0,1.0,8.4648,
29.4012,8.534,0.0,166.77,167.254,0.0,1.0,8.534,
29.6512,8.5999,0.0,168.02,168.504,0.0,1.0,8.5999,
29.9012,8.6713,0.0,169.27,169.754,0.0,1.0,8.6713,
30.1512,8.7346,0.0,170.516,171.004,0.0,1.0,8.7346,
30.4012,8.7987,0.0,171.766,172.254,0.0,1.0,8.7987,
30.6512,8.8628,0.0,173.012,173.5,0.0,1.0,8.8628,
30.9012,8.931,0.0,174.262,174.745,0.0,1.0,8.931,
31.1512,9.0016,0.0,175.508,175.995,0.0,1.0,9.0016,
31.4012,9.0692,0.0,176.758,177.241,0.0,1.0,9.0692,
31.6512,9.1357,0.0,178.004,178.487,0.0,1.0,9.1357,
31.9012,9.2043,0.0,179.254,179.737,0.0,1.0,9.2043,
32.1512,9.2721,0.0,180.5,180.979,0.0,1.0,9.2721,
32.4012,9.3423,0.0,181.75,182.225,0.0,1.0,9.3423,
32.6512,9.4094,0.0,182.995,183.475,0.0,1.0,9.4094,
32.9012,9.4793,0.0,184.245,184.733,0.0,1.0,9.4793,
33.1512,9.5351,0.0,185.491,185.979,0.0,1.0,9.5351,
33.4012,9.6178,0.0,186.741,187.225,0.0,1.0,9.6178,
33.6512,9.6887,0.0,187.987,188.475,0.0,1.0,9.6887,
33.9012,9.7563,0.0,189.237,189.725,0.0,1.0,9.7563,
34.1512,9.8317,0.0,190.483,190.97,0.0,1.0,9.8317,
34.4012,9.9033,0.0,191.733,192.216,0.0,1.0,9.9033,
34.6512,9.9702,0.0,192.979,193.47,0.0,1.0,9.9702,
34.9012,10.0454,0.0,194.229,194.72,0.0,1.0,10.0454,
35.1512,10.1198,0.0,195.475,195.962,0.0,1.0,10.1198,
35.4012,10.1916,0.0,196.725,197.212,0.0,1.0,10.1916,
35.6512,10.2627,0.0,197.97,198.454,0.0,1.0,10.2627,
35.9012,10.3319,0.0,199.22,199.695,0.0,1.0,10.3319,
36.1512,10.311,0.0,199.529,200.262,0.0,1.0,10.311,
36.4012,9.1847,0.0,198.283,199.033,0.0,1.0,9.1847,
36.6512,9.1304,0.0,197.033,197.791,0.0,1.0,9.1304,
36.9012,9.0452,0.0,195.787,196.55,0.0,1.0,9.0452,
37.1512,8.9677,0.0,194.537,195.304,0.0,1.0,8.9677,
37.4012,8.8898,0.0,193.291,194.054,0.0,1.0,8.8898,
37.6512,8.8119,0.0,192.041,192.812,0.0,1.0,8.8119,
37.9012,8.7383,0.0,190.795,191.558,0.0,1.0,8.7383,
38.1512,8.6628,0.0,189.545,190.316,0.0,1.0,8.6628,
38.4012,8.5891,0.0,188.3,189.07,0.0,1.0,8.5891,
38.6512,8.5168,0.0,187.05,187.82,0.0,1.0,8.5168,
38.9012,8.4398,0.0,185.804,186.575,0.0,1.0,8.4398,
39.1512,8.3678,0.0,184.554,185.325,0.0,1.0,8.3678,
39.4012,8.2955,0.0,183.308,184.075,0.0,1.0,8.2955,
39.6512,8.2163,0.0,182.058,182.829,0.0,1.0,8.2163,
39.9012,8.1476,0.0,180.812,181.583,0.0,1.0,8.1476,
40.1512,8.0777,0.0,179.562,180.341,0.0,1.0,8.0777,
40.4012,8.0044,0.0,178.316,179.091,0.0,1.0,8.0044,
40.6512,7.9329,0.0,177.066,177.85,0.0,1.0,7.9329,
40.9012,7.8622,0.0,175.82,176.604,0.0,1.0,7.8622,
41.1512,7.7946,0.0,174.57,175.354,0.0,1.0,7.7946,
41.4012,7.7243,0.0,173.325,174.112,0.0,1.0,7.7243,
41.6512,7.654,0.0,172.075,172.858,0.0,1.0,7.654,
41.9012,7.5871,0.0,170.829,171.616,0.0,1.0,7.5871,
42.1512,7.5173,0.0,169.579,170.37,0.0,1.0,7.5173,
42.4012,7.4511,0.0,168.333,169.125,0.0,1.0,7.4511,
42.6512,7.3844,0.0,167.083,167.87,0.0,1.0,7.3844,
42.9012,7.3197,0.0,165.837,166.633,0.0,1.0,7.3197,
43.1512,7.2502,0.0,164.587,165.383,0.0,1.0,7.2502,
43.4012,7.1861,0.0,163.341,164.133,0.0,1.0,7.1861,
43.6512,7.1211,0.0,162.091,162.887,0.0,1.0,7.1211,
43.9012,7.0505,0.0,160.841,161.641,0.0,1.0,7.0505,
44.1512,6.9871,0.0,159.595,160.4,0.0,1.0,6.9871,
44.4012,6.9258,0.0,158.345,159.154,0.0,1.0,6.9258,
44.6512,6.8558,0.0,157.1,157.9,0.0,1.0,6.8558,
44.9012,6.7905,0.0,155.85,156.662,0.0,1.0,6.7905,
45.1512,6.7235,0.0,154.604,155.416,0.0,1.0,6.7235,
45.4012,6.6615,0.0,153.354,154.166,0.0,1.0,6.6615,
45.6512,6.6005,0.0,152.108,152.92,0.0,1.0,6.6005,
45.9012,6.5351,0.0,150.858,151.679,0.0,1.0,6.5351,
46.1512,6.4702,0.0,149.612,150.433,0.0,1.0,6.4702,
46.4012,6.4041,0.0,148.362,149.187,0.0,1.0,6.4041,
46.6512,6.3409,0.0,147.116,147.941,0.0,1.0,6.3409,
46.9012,6.2802,0.0,145.866,146.695,0.0,1.0,6.2802,
47.1512,6.219,0.0,144.62,145.454,0.0,1.0,6.219,
47.4012,6.1548,0.0,143.37,144.212,0.0,1.0,6.1548,
47.6512,6.0917,0.0,142.125,142.966,0.0,1.0,6.0917,
47.9012,6.0306,0.0,140.875,141.725,0.0,1.0,6.0306,
48.1512,5.9707,0.0,139.629,140.479,0.0,1.0,5.9707,
48.4012,5.9099,0.0,138.379,139.237,0.0,1.0,5.9099,
48.6512,5.8484,0.0,137.133,137.991,0.0,1.0,5.8484,
48.9012,5.7845,0.0,135.883,136.737,0.0,1.0,5.7845,
49.1512,5.7232,0.0,134.637,135.487,0.0,1.0,5.7232,
49.4012,5.6634,0.0,133.387,134.241,0.0,1.0,5.6634,
49.6512,5.6051,0.0,132.141,133.0,0.0,1.0,5.6051,
49.9012,5.5442,0.0,130.891,131.754,0.0,1.0,5.5442,
50.1512,5.4852,0.0,129.645,130.504,0.0,1.0,5.4852,
50.4012,5.4248,0.0,128.395,129.258,0.0,1.0,5.4248,
50.6512,5.3624,0.0,127.15,128.004,0.0,1.0,5.3624,
50.9012,5.3053,0.0,125.9,126.762,0.0,1.0,5.3053,
51.1512,5.2467,0.0,124.654,125.516,0.0,1.0,5.2467,
51.4012,5.1829,0.0,123.404,124.27,0.0,1.0,5.1829,
51.6512,5.0754,0.0,122.158,123.029,0.0,1.0,5.0754,
51.9012,3.8162,0.0,120.908,121.787,0.0,1.0,3.8162,
52.1512,-0.5313,0.0,119.662,120.55,0.0,1.0,-0.5313,
52.4012,-1.1416,0.0,118.412,119.3,0.0,1.0,-1.1416,
52.6512,0.5579,0.0,117.166,118.054,0.0,1.0,0.5579,
52.9012,2.063,0.0,115.916,116.808,0.0,1.0,2.063,
53.1512,2.9519,0.0,114.666,115.558,0.0,1.0,2.9519,
53.4012,3.3889,0.0,113.42,114.316,0.0,1.0,3.3889,
53.6512,3.6161,0.0,112.17,113.066,0.0,1.0,3.6161,
53.9012,3.7401,0.0,110.925,111.829,0.0,1.0,3.7401,
54.1512,3.8102,0.0,109.675,110.579,0.0,1.0,3.8102,
54.4012,3.8513,0.0,108.429,109.329,0.0,1.0,3.8513,
54.6512,3.8738,0.0,107.179,108.087,0.0,1.0,3.8738,
54.9012,3.8772,0.0,105.933,106.841,0.0,1.0,3.8772,
55.1512,3.8725,0.0,104.683,105.604,0.0,1.0,3.8725,
55.4012,3.8599,0.0,103.437,104.358,0.0,1.0,3.8599,
55.6512,3.8427,0.0,102.187,103.116,0.0,1.0,3.8427,
55.9012,3.8182,0.0,100.941,101.87,0.0,1.0,3.8182,
56.1512,3.7936,0.0,99.691,100.625,0.0,1.0,3.7936,
56.4012,3.7588,0.0,98.445,99.383,0.0,1.0,3.7588,
56.6512,3.7216,0.0,97.195,98.137,0.0,1.0,3.7216,
56.9012,3.6842,0.0,95.95,96.895,0.0,1.0,3.6842,
57.1512,3.6537,0.0,94.7,95.654,0.0,1.0,3.6537,
57.4012,3.6167,0.0,93.454,94.408,0.0,1.0,3.6167,
57.6512,3.5748,0.0,92.204,93.17,0.0,1.0,3.5748,
57.9012,3.535,0.0,90.958,91.929,0.0,1.0,3.535,
58.1512,3.4903,0.0,89.708,90.687,0.0,1.0,3.4903,
58.4012,3.4453,0.0,88.462,89.441,0.0,1.0,3.4453,
58.6512,3.4002,0.0,87.212,88.2,0.0,1.0,3.4002,
58.9012,3.3533,0.0,85.966,86.962,0.0,1.0,3.3533,
59.1512,3.3065,0.0,84.716,85.72,0.0,1.0,3.3065,
59.4012,3.2549,0.0,83.47,84.483,0.0,1.0,3.2549,
59.6512,3.2076,0.0,82.22,83.233,0.0,1.0,3.2076,
59.9012,3.167,0.0,80.975,81.987,0.0,1.0,3.167,
60.1512,3.1262,0.0,79.725,80.745,0.0,1.0,3.1262,
60.4012,3.0883,0.0,78.479,79.5,0.0,1.0,3.0883,
60.6512,3.0508,0.0,77.229,78.254,0.0,1.0,3.0508,
60.9012,3.0107,0.0,75.983,77.012,0.0,1.0,3.0107,
61.1512,2.9746,0.0,74.733,75.762,0.0,1.0,2.9746,
61.4012,2.9378,0.0,73.487,74.525,0.0,1.0,2.9378,
61.6512,2.9023,0.0,72.237,73.279,0.0,1.0,2.9023,
61.9012,2.8599,0.0,70.987,72.033,0.0,1.0,2.8599,
62.1512,2.8174,0.0,69.741,70.791,0.0,1.0,2.8174,
62.4012,2.7726,0.0,68.491,69.545,0.0,1.0,2.7726,
62.6512,2.7335,0.0,67.245,68.304,0.0,1.0,2.7335,
62.9012,2.6894,0.0,65.995,67.062,0.0,1.0,2.6894,
63.1512,2.6487,0.0,64.75,65.82,0.0,1.0,2.6487,
63.4012,2.5977,0.0,63.5,64.579,0.0,1.0,2.5977,
63.6512,2.5624,0.0,62.254,63.337,0.0,1.0,2.5624,
63.9012,2.5246,0.0,61.004,62.095,0.0,1.0,2.5246,
64.1512,2.4851,0.0,59.758,60.854,0.0,1.0,2.4851,
64.4012,2.4437,0.0,58.508,59.62,0.0,1.0,2.4437,
64.6512,2.4058,0.0,57.262,58.379,0.0,1.0,2.4058,
64.9012,2.3589,0.0,56.012,57.141,0.0,1.0,2.3589,
65.1512,2.3141,0.0,54.766,55.908,0.0,1.0,2.3141,
65.4012,2.2757,0.0,53.516,54.666,0.0,1.0,2.2757,
65.6512,2.233,0.0,52.27,53.425,0.0,1.0,2.233,
65.9012,2.1915,0.0,51.02,52.195,0.0,1.0,2.1915,
66.1512,2.1507,0.0,49.775,50.962,0.0,1.0,2.1507,
66.4012,2.0967,0.0,48.525,49.729,0.0,1.0,2.0967,
66.6512,2.0641,0.0,47.279,48.495,0.0,1.0,2.0641,
66.9012,2.0305,0.0,46.029,47.258,0.0,1.0,2.0305,
67.1512,2.0031,0.0,44.783,46.025,0.0,1.0,2.0031,
67.4012,1.9555,0.0,43.533,44.787,0.0,1.0,1.9555,
67.6512,1.9164,0.0,42.287,43.562,0.0,1.0,1.9164,
67.9012,1.8836,0.0,41.037,42.337,0.0,1.0,1.8836,
68.1512,1.848,0.0,39.791,41.112,0.0,1.0,1.848,
68.4012,1.8148,0.0,38.541,39.883,0.0,1.0,1.8148,
68.6512,1.7843,0.0,37.295,38.658,0.0,1.0,1.7843,
68.9012,1.7551,0.0,36.045,37.433,0.0,1.0,1.7551,
69.1512,1.7251,0.0,34.8,36.212,0.0,1.0,1.7251,
69.4012,1.6997,0.0,33.55,34.987,0.0,1.0,1.6997,
69.6512,1.6843,0.0,32.304,33.77,0.0,1.0,1.6843,
69.9012,1.6645,0.0,31.054,32.558,0.0,1.0,1.6645,
70.1512,0.1633,0.0,30.187,31.395,0.0,1.0,0.1633,
70.4012,1.886,0.0,31.437,32.35,0.0,1.0,1.886,
70.6512,2.004,0.0,32.683,33.583,0.0,1.0,2.004,
70.9012,2.0484,0.0,33.933,34.812,0.0,1.0,2.0484,
71.1512,2.1046,0.0,35.179,36.041,0.0,1.0,2.1046,
71.4012,2.161,0.0,36.429,37.283,0.0,1.0,2.161,
71.6512,2.2151,0.0,37.675,38.508,0.0,1.0,2.2151,
71.9012,2.2687,0.0,38.925,39.75,0.0,1.0,2.2687,
72.1512,2.3239,0.0,40.17,40.987,0.0,1.0,2.3239,
72.4012,2.3797,0.0,41.42,42.22,0.0,1.0,2.3797,
72.6512,2.433,0.0,42.666,43.454,0.0,1.0,2.433,
72.9012,2.4919,0.0,43.916,44.695,0.0,1.0,2.4919,
73.1512,2.5468,0.0,45.162,45.933,0.0,1.0,2.5468,
73.4012,2.5973,0.0,46.412,47.175,0.0,1.0,2.5973,
73.6512,2.6512,0.0,47.658,48.412,0.0,1.0,2.6512,
73.9012,2.7076,0.0,48.908,49.654,0.0,1.0,2.7076,
74.1512,2.7618,0.0,50.154,50.895,0.0,1.0,2.7618,
74.4012,2.8162,0.0,51.404,52.129,0.0,1.0,2.8162,
74.6512,2.8754,0.0,52.654,53.366,0.0,1.0,2.8754,
74.9012,2.9311,0.0,53.9,54.608,0.0,1.0,2.9311,
75.1512,2.9873,0.0,55.15,55.85,0.0,1.0,2.9873,
75.4012,3.0447,0.0,56.395,57.1,0.0,1.0,3.0447,
75.6512,3.1013,0.0,57.645,58.341,0.0,1.0,3.1013,
75.9012,3.1592,0.0,58.891,59.579,0.0,1.0,3.1592,
76.1512,3.2154,0.0,60.141,60.825,0.0,1.0,3.2154,
76.4012,3.273,0.0,61.387,62.062,0.0,1.0,3.273,
76.6512,3.329,0.0,62.637,63.312,0.0,1.0,3.329,
76.9012,3.3878,0.0,63.883,64.554,0.0,1.0,3.3878,
77.1512,3.4477,0.0,65.133,65.8,0.0,1.0,3.4477,
77.4012,3.5059,0.0,66.379,67.041,0.0,1.0,3.5059,
77.6512,3.5596,0.0,67.629,68.291,0.0,1.0,3.5596,
77.9012,3.6163,0.0,68.875,69.533,0.0,1.0,3.6163,
78.1512,3.6755,0.0,70.125,70.775,0.0,1.0,3.6755,
78.4012,3.7299,0.0,71.37,72.025,0.0,1.0,3.7299,
78.6512,3.781,0.0,72.62,73.275,0.0,1.0,3.781,
78.9012,3.8397,0.0,73.866,74.516,0.0,1.0,3.8397,
79.1512,3.8987,0.0,75.116,75.762,0.0,1.0,3.8987,
79.4012,3.9617,0.0,76.362,77.008,0.0,1.0,3.9617,
79.6512,4.0284,0.0,77.612,78.262,0.0,1.0,4.0284,
79.9012,4.0875,0.0,78.858,79.504,0.0,1.0,4.0875,
80.1512,4.147,0.0,80.108,80.754,0.0,1.0,4.147,
80.4012,4.2115,0.0,81.354,81.995,0.0,1.0,4.2115,
80.6512,4.2705,0.0,82.604,83.245,0.0,1.0,4.2705,
80.9012,4.3328,0.0,83.85,84.491,0.0,1.0,4.3328,
81.1512,4.3933,0.0,85.1,85.733,0.0,1.0,4.3933,
81.4012,4.4567,0.0,86.345,86.979,0.0,1.0,4.4567,
81.6512,4.5202,0.0,87.595,88.22,0.0,1.0,4.5202,
81.9012,4.5796,0.0,88.841,89.458,0.0,1.0,4.5796,
82.1512,4.644,0.0,90.091,90.708,0.0,1.0,4.644,
82.4012,4.7097,0.0,91.337,91.95,0.0,1.0,4.7097,
82.6512,4.7764,0.0,92.587,93.2,0.0,1.0,4.7764,
82.9012,4.8355,0.0,93.833,94.441,0.0,1.0,4.8355,
83.1512,4.9066,0.0,95.083,95.687,0.0,1.0,4.9066,
83.4012,4.976,0.0,96.333,96.925,0.0,1.0,4.976,
83.6512,5.0426,0.0,97.579,98.17,0.0,1.0,5.0426,
83.9012,5.1105,0.0,98.829,99.416,0.0,1.0,5.1105,
84.1512,5.1838,0.0,100.075,100.662,0.0,1.0,5.1838,
84.4012,5.26,0.0,101.325,101.912,0.0,1.0,5.26,
84.6512,5.335,0.0,102.57,103.154,0.0,1.0,5.335,
84.9012,5.4065,0.0,103.82,104.4,0.0,1.0,5.4065,
85.1512,5.4815,0.0,105.066,105.645,0.0,1.0,5.4815,
85.4012,5.5672,0.0,106.316,106.887,0.0,1.0,5.5672,
85.6512,5.6476,0.0,107.562,108.129,0.0,1.0,5.6476,
85.9012,5.7354,0.0,108.812,109.379,0.0,1.0,5.7354,
86.1512,5.8242,0.0,110.058,110.625,0.0,1.0,5.8242,
86.4012,5.9158,0.0,111.308,111.87,0.0,1.0,5.9158,
86.6512,6.0188,0.0,112.554,113.116,0.0,1.0,6.0188,
86.9012,6.1279,0.0,113.804,114.362,0.0,1.0,6.1279,
87.1512,6.2407,0.0,115.05,115.608,0.0,1.0,6.2407,
87.4012,6.3783,0.0,116.3,116.85,0.0,1.0,6.3783,
87.6512,6.5309,0.0,117.545,118.095,0.0,1.0,6.5309,
87.9012,6.7131,0.0,118.795,119.345,0.0,1.0,6.7131,
88.1512,6.9318,0.0,120.041,120.591,0.0,1.0,6.9318,
88.4012,7.2118,0.0,121.291,121.841,0.0,1.0,7.2118,
88.6512,7.5606,0.0,122.537,123.087,0.0,1.0,7.5606,
88.9012,7.9947,0.0,123.787,124.325,0.0,1.0,7.9947,
89.1512,8.5169,0.0,125.033,125.57,0.0,1.0,8.5169,
89.4012,9.1192,0.0,126.283,126.825,0.0,1.0,9.1192,
89.6512,9.8297,0.0,127.529,128.066,0.0,1.0,9.8297,
89.9012,10.5851,0.0,128.779,129.312,0.0,1.0,10.5851,
90.1512,11.2112,0.0,130.025,130.558,0.0,1.0,11.2112,
90.4012,9.7784,0.0,131.275,131.812,0.0,1.0,9.7784,
90.6512,6.623,0.0,132.52,133.058,0.0,1.0,6.623,
90.9012,6.6619,0.0,133.77,134.308,0.0,1.0,6.6619,
91.1512,6.7254,0.0,135.016,135.558,0.0,1.0,6.7254,
91.4012,6.7885,0.0,136.266,136.808,0.0,1.0,6.7885,
91.6512,6.8469,0.0,137.512,138.054,0.0,1.0,6.8469,
91.9012,6.9131,0.0,138.762,139.304,0.0,1.0,6.9131,
92.1512,6.9668,0.0,140.012,140.554,0.0,1.0,6.9668,
92.4012,7.0331,0.0,141.258,141.8,0.0,1.0,7.0331,
92.6512,7.0994,0.0,142.508,143.041,0.0,1.0,7.0994,
92.9012,7.1612,0.0,143.754,144.287,0.0,1.0,7.1612,
93.1512,7.228,0.0,145.004,145.525,0.0,1.0,7.228,
93.4012,7.2946,0.0,146.25,146.775,0.0,1.0,7.2946,
93.6512,7.3585,0.0,147.5,148.02,0.0,1.0,7.3585,
93.9012,7.4162,0.0,148.745,149.266,0.0,1.0,7.4162,
94.1512,7.4766,0.0,149.995,150.516,0.0,1.0,7.4766,
94.4012,7.5469,0.0,151.241,151.758,0.0,1.0,7.5469,
94.6512,7.612,0.0,152.491,153.004,0.0,1.0,7.612,
94.9012,7.6772,0.0,153.737,154.25,0.0,1.0,7.6772,
95.1512,7.744,0.0,154.987,155.495,0.0,1.0,7.744,
95.4012,7.8092,0.0,156.233,156.745,0.0,1.0,7.8092,
95.6512,7.8733,0.0,157.483,157.987,0.0,1.0,7.8733,
95.9012,7.9369,0.0,158.729,159.237,0.0,1.0,7.9369,
96.1512,8.0057,0.0,159.979,160.483,0.0,1.0,8.0057,
96.4012,8.0726,0.0,161.225,161.729,0.0,1.0,8.0726,
96.6512,8.1404,0.0,162.475,162.979,0.0,1.0,8.1404,
96.9012,8.2123,0.0,163.72,164.22,0.0,1.0,8.2123,
97.1512,8.2764,0.0,164.97,165.47,0.0,1.0,8.2764,
97.4012,8.3429,0.0,166.216,166.716,0.0,1.0,8.3429,
97.6512,8.4185,0.0,167.466,167.97,0.0,1.0,8.4185,
97.9012,8.4896,0.0,168.712,169.212,0.0,1.0,8.4896,
98.1512,8.5587,0.0,169.962,170.466,0.0,1.0,8.5587,
98.4012,8.6296,0.0,171.208,171.712,0.0,1.0,8.6296,
98.6512,8.696,0.0,172.458,172.954,0.0,1.0,8.696,
98.9012,8.7639,0.0,173.704,174.208,0.0,1.0,8.7639,
99.1512,8.8329,0.0,174.954,175.45,0.0,1.0,8.8329,
99.4012,8.9054,0.0,176.2,176.7,0.0,1.0,8.9054,
99.6512,8.9796,0.0,177.45,177.945,0.0,1.0,8.9796,
99.9012,9.0524,0.0,178.695,179.191,0.0,1.0,9.0524,
100.151,9.1198,0.0,179.945,180.429,0.0,1.0,9.1198,
100.401,9.1939,0.0,181.191,181.679,0.0,1.0,9.1939,
100.651,9.268,0.0,182.441,182.933,0.0,1.0,9.268,
100.901,9.3462,0.0,183.687,184.179,0.0,1.0,9.3462,
101.151,9.4199,0.0,184.937,185.425,0.0,1.0,9.4199,
101.401,9.4938,0.0,186.187,186.679,0.0,1.0,9.4938,
101.651,9.5654,0.0,187.433,187.925,0.0,1.0,9.5654,
101.901,9.641,0.0,188.683,189.175,0.0,1.0,9.641,
102.151,9.7187,0.0,189.929,190.416,0.0,1.0,9.7187,
102.401,9.7987,0.0,191.179,191.67,0.0,1.0,9.7987,
102.651,9.8704,0.0,192.425,192.916,0.0,1.0,9.8704,
102.901,9.9441,0.0,193.675,194.17,0.0,1.0,9.9441,
103.151,10.0204,0.0,194.92,195.416,0.0,1.0,10.0204,
103.401,10.0984,0.0,196.17,196.658,0.0,1.0,10.0984,
103.651,10.1725,0.0,197.416,197.908,0.0,1.0,10.1725,
103.901,10.2524,0.0,198.666,199.15,0.0,1.0,10.2524,
104.151,10.3338,0.0,199.912,200.391,0.0,1.0,10.3338,
104.401,9.1165,0.0,198.837,199.583,0.0,1.0,9.1165,
104.651,9.1353,0.0,197.587,198.341,0.0,1.0,9.1353,
104.901,9.0579,0.0,196.341,197.1,0.0,1.0,9.0579,
105.151,8.9811,0.0,195.091,195.854,0.0,1.0,8.9811,
105.401,8.9074,0.0,193.845,194.612,0.0,1.0,8.9074,
105.651,8.8297,0.0,192.595,193.366,0.0,1.0,8.8297,
105.901,8.754,0.0,191.35,192.116,0.0,1.0,8.754,
106.151,8.6789,0.0,190.1,190.87,0.0,1.0,8.6789,
106.401,8.6101,0.0,188.854,189.62,0.0,1.0,8.6101,
106.651,8.537,0.0,187.604,188.37,0.0,1.0,8.537,
106.901,8.4652,0.0,186.358,187.125,0.0,1.0,8.4652,
107.151,8.3987,0.0,185.108,185.875,0.0,1.0,8.3987,
107.401,8.3217,0.0,183.862,184.625,0.0,1.0,8.3217,
107.651,8.2455,0.0,182.612,183.383,0.0,1.0,8.2455,
107.901,8.178,0.0,181.366,182.129,0.0,1.0,8.178,
108.151,8.1081,0.0,180.116,180.887,0.0,1.0,8.1081,
108.401,8.0326,0.0,178.87,179.641,0.0,1.0,8.0326,
108.651,7.9598,0.0,177.62,178.395,0.0,1.0,7.9598,
108.901,7.8888,0.0,176.375,177.154,0.0,1.0,7.8888,
109.151,7.8216,0.0,175.125,175.904,0.0,1.0,7.8216,
109.401,7.751,0.0,173.879,174.662,0.0,1.0,7.751,
109.651,7.6806,0.0,172.629,173.412,0.0,1.0,7.6806,
109.901,7.6124,0.0,171.383,172.162,0.0,1.0,7.6124,
110.151,7.5467,0.0,170.133,170.92,0.0,1.0,7.5467,
110.401,7.477,0.0,168.887,169.675,0.0,1.0,7.477,
110.651,7.4123,0.0,167.637,168.429,0.0,1.0,7.4123,
110.901,7.3466,0.0,166.391,167.183,0.0,1.0,7.3466,
111.151,7.2803,0.0,165.141,165.933,0.0,1.0,7.2803,
111.401,7.2137,0.0,163.895,164.687,0.0,1.0,7.2137,
111.651,7.1483,0.0,162.645,163.437,0.0,1.0,7.1483,
111.901,7.0802,0.0,161.395,162.195,0.0,1.0,7.0802,
112.151,7.014,0.0,160.15,160.941,0.0,1.0,7.014,
112.401,6.9499,0.0,158.9,159.7,0.0,1.0,6.9499,
112.651,6.8894,0.0,157.654,158.454,0.0,1.0,6.8894,
112.901,6.8262,0.0,156.404,157.204,0.0,1.0,6.8262,
113.151,6.7626,0.0,155.158,155.962,0.0,1.0,6.7626,
113.401,6.6954,0.0,153.908,154.712,0.0,1.0,6.6954,
113.651,6.631,0.0,152.662,153.47,0.0,1.0,6.631,
113.901,6.564,0.0,151.412,152.225,0.0,1.0,6.564,
114.151,6.5033,0.0,150.166,150.975,0.0,1.0,6.5033,
114.401,6.4423,0.0,148.916,149.737,0.0,1.0,6.4423,
114.651,6.3793,0.0,147.67,148.487,0.0,1.0,6.3793,
114.901,6.3126,0.0,146.42,147.245,0.0,1.0,6.3126,
115.151,6.2529,0.0,145.175,146.0,0.0,1.0,6.2529,
115.401,6.1892,0.0,143.925,144.75,0.0,1.0,6.1892,
115.651,6.1266,0.0,142.679,143.508,0.0,1.0,6.1266,
115.901,6.0653,0.0,141.429,142.266,0.0,1.0,6.0653,
116.151,6.0041,0.0,140.183,141.025,0.0,1.0,6.0041,
116.401,5.941,0.0,138.933,139.779,0.0,1.0,5.941,
116.651,5.88,0.0,137.687,138.529,0.0,1.0,5.88,
116.901,5.8185,0.0,136.437,137.283,0.0,1.0,5.8185,
117.151,5.7577,0.0,135.191,136.033,0.0,1.0,5.7577,
117.401,5.6986,0.0,133.941,134.787,0.0,1.0,5.6986,
117.651,5.6407,0.0,132.695,133.541,0.0,1.0,5.6407,
117.901,5.5783,0.0,131.445,132.295,0.0,1.0,5.5783,
118.151,5.5231,0.0,130.2,131.045,0.0,1.0,5.5231,
118.401,5.4622,0.0,128.95,129.804,0.0,1.0,5.4622,
118.651,5.4026,0.0,127.704,128.554,0.0,1.0,5.4026,
118.901,5.3414,0.0,126.454,127.304,0.0,1.0,5.3414,
119.151,5.2842,0.0,125.208,126.062,0.0,1.0,5.2842,
119.401,5.2208,0.0,123.958,124.812,0.0,1.0,5.2208,
119.651,5.1499,0.0,122.712,123.566,0.0,1.0,5.1499,
119.901,4.6729,0.0,121.462,122.325,0.0,1.0,4.6729,
120.151,1.5859,0.0,120.216,121.087,0.0,1.0,1.5859,
120.401,-1.3754,0.0,118.966,119.845,0.0,1.0,-1.3754,
120.651,-0.133,0.0,117.72,118.595,0.0,1.0,-0.133,
120.901,1.4886,0.0,116.47,117.35,0.0,1.0,1.4886,
121.151,2.6568,0.0,115.22,116.104,0.0,1.0,2.6568,
121.401,3.2579,0.0,113.975,114.854,0.0,1.0,3.2579,
121.651,3.5605,0.0,112.725,113.612,0.0,1.0,3.5605,
121.901,3.7168,0.0,111.479,112.366,0.0,1.0,3.7168,
122.151,3.8072,0.0,110.229,111.125,0.0,1.0,3.8072,
122.401,3.86,0.0,108.983,109.879,0.0,1.0,3.86,
122.651,3.8872,0.0,107.733,108.629,0.0,1.0,3.8872,
122.901,3.9027,0.0,106.487,107.383,0.0,1.0,3.9027,
123.151,3.9026,0.0,105.237,106.141,0.0,1.0,3.9026,
123.401,3.8928,0.0,103.991,104.904,0.0,1.0,3.8928,
123.651,3.8771,0.0,102.741,103.658,0.0,1.0,3.8771,
123.901,3.8547,0.0,101.495,102.412,0.0,1.0,3.8547,
124.151,3.8269,0.0,100.245,101.17,0.0,1.0,3.8269,
124.401,3.7959,0.0,99.0,99.925,0.0,1.0,3.7959,
124.651,3.7634,0.0,97.75,98.679,0.0,1.0,3.7634,
124.901,3.7357,0.0,96.504,97.437,0.0,1.0,3.7357,
125.151,3.6981,0.0,95.254,96.195,0.0,1.0,3.6981,
125.401,3.6564,0.0,94.008,94.958,0.0,1.0,3.6564,
125.651,3.6177,0.0,92.758,93.708,0.0,1.0,3.6177,
125.901,3.5772,0.0,91.512,92.466,0.0,1.0,3.5772,
126.151,3.5363,0.0,90.262,91.225,0.0,1.0,3.5363,
126.401,3.4877,0.0,89.016,89.975,0.0,1.0,3.4877,
126.651,3.4378,0.0,87.766,88.737,0.0,1.0,3.4378,
126.901,3.3935,0.0,86.52,87.495,0.0,1.0,3.3935,
127.151,3.346,0.0,85.27,86.262,0.0,1.0,3.346,
127.401,3.2979,0.0,84.025,85.02,0.0,1.0,3.2979,
127.651,3.2508,0.0,82.775,83.775,0.0,1.0,3.2508,
127.901,3.2025,0.0,81.529,82.533,0.0,1.0,3.2025,
128.151,3.1592,0.0,80.279,81.283,0.0,1.0,3.1592,
128.401,3.1214,0.0,79.033,80.041,0.0,1.0,3.1214,
128.651,3.0844,0.0,77.783,78.795,0.0,1.0,3.0844,
128.901,3.0484,0.0,76.537,77.55,0.0,1.0,3.0484,
129.151,3.0148,0.0,75.287,76.312,0.0,1.0,3.0148,
129.401,2.9768,0.0,74.041,75.066,0.0,1.0,2.9768,
129.651,2.938,0.0,72.791,73.82,0.0,1.0,2.938,
129.901,2.8983,0.0,71.541,72.575,0.0,1.0,2.8983,
130.151,2.8577,0.0,70.295,71.333,0.0,1.0,2.8577,
130.401,2.8169,0.0,69.045,70.091,0.0,1.0,2.8169,
130.651,2.7745,0.0,67.8,68.845,0.0,1.0,2.7745,
130.901,2.7352,0.0,66.55,67.604,0.0,1.0,2.7352,
131.151,2.6908,0.0,65.304,66.358,0.0,1.0,2.6908,
131.401,2.6482,0.0,64.054,65.116,0.0,1.0,2.6482,
131.651,2.6079,0.0,62.808,63.879,0.0,1.0,2.6079,
131.901,2.5645,0.0,61.558,62.633,0.0,1.0,2.5645,
132.151,2.5223,0.0,60.312,61.4,0.0,1.0,2.5223,
132.401,2.4775,0.0,59.062,60.158,0.0,1.0,2.4775,
132.651,2.4187,0.0,57.816,58.916,0.0,1.0,2.4187,
132.901,2.3898,0.0,56.566,57.679,0.0,1.0,2.3898,
133.151,2.3521,0.0,55.32,56.441,0.0,1.0,2.3521,
133.401,2.3112,0.0,54.07,55.2,0.0,1.0,2.3112,
133.651,2.2689,0.0,52.825,53.966,0.0,1.0,2.2689,
133.901,2.2302,0.0,51.575,52.733,0.0,1.0,2.2302,
134.151,2.1862,0.0,50.329,51.5,0.0,1.0,2.1862,
134.401,2.1506,0.0,49.079,50.266,0.0,1.0,2.1506,
134.651,2.107,0.0,47.833,49.029,0.0,1.0,2.107,
134.901,2.0671,0.0,46.583,47.795,0.0,1.0,2.0671,
135.151,2.023,0.0,45.337,46.558,0.0,1.0,2.023,
135.401,1.9866,0.0,44.087,45.329,0.0,1.0,1.9866,
135.651,1.9486,0.0,42.841,44.095,0.0,1.0,1.9486,
135.901,1.9121,0.0,41.591,42.87,0.0,1.0,1.9121,
136.151,1.8787,0.0,40.345,41.645,0.0,1.0,1.8787,
136.401,1.8441,0.0,39.095,40.416,0.0,1.0,1.8441,
136.651,1.8077,0.0,37.85,39.195,0.0,1.0,1.8077,
136.901,1.7763,0.0,36.6,37.962,0.0,1.0,1.7763,
137.151,1.7534,0.0,35.354,36.737,0.0,1.0,1.7534,
137.401,1.7252,0.0,34.104,35.52,0.0,1.0,1.7252,
137.651,1.6985,0.0,32.858,34.3,0.0,1.0,1.6985,
137.901,1.6806,0.0,31.608,33.079,0.0,1.0,1.6806,
138.151,1.6637,0.0,30.362,31.866,0.0,1.0,1.6637,
138.401,1.0799,0.0,30.883,31.804,0.0,1.0,1.0799,
138.651,2.0091,0.0,32.129,33.02,0.0,1.0,2.0091,
138.901,2.0414,0.0,33.379,34.254,0.0,1.0,2.0414,
139.151,2.0938,0.0,34.625,35.487,0.0,1.0,2.0938,
139.401,2.1492,0.0,35.875,36.716,0.0,1.0,2.1492,
139.651,2.2054,0.0,37.12,37.954,0.0,1.0,2.2054,
139.901,2.2591,0.0,38.37,39.191,0.0,1.0,2.2591,
140.151,2.3171,0.0,39.616,40.42,0.0,1.0,2.3171,
140.401,2.3759,0.0,40.866,41.662,0.0,1.0,2.3759,
140.651,2.432,0.0,42.112,42.895,0.0,1.0,2.432,
140.901,2.4813,0.0,43.362,44.133,0.0,1.0,2.4813,
141.151,2.5387,0.0,44.608,45.375,0.0,1.0,2.5387,
141.401,2.5968,0.0,45.858,46.608,0.0,1.0,2.5968,
141.651,2.6527,0.0,47.104,47.854,0.0,1.0,2.6527,
141.901,2.7071,0.0,48.354,49.087,0.0,1.0,2.7071,
142.151,2.7599,0.0,49.604,50.325,0.0,1.0,2.7599,
142.401,2.8202,0.0,50.85,51.57,0.0,1.0,2.8202,
142.651,2.8793,0.0,52.1,52.808,0.0,1.0,2.8793,
142.901,2.9322,0.0,53.345,54.05,0.0,1.0,2.9322,
143.151,2.9873,0.0,54.595,55.291,0.0,1.0,2.9873,
143.401,3.0436,0.0,55.841,56.533,0.0,1.0,3.0436,
143.651,3.1014,0.0,57.091,57.775,0.0,1.0,3.1014,
143.901,3.154,0.0,58.337,59.016,0.0,1.0,3.154,
144.151,3.2168,0.0,59.587,60.254,0.0,1.0,3.2168,
144.401,3.282,0.0,60.833,61.495,0.0,1.0,3.282,
144.651,3.3483,0.0,62.083,62.737,0.0,1.0,3.3483,
144.901,3.3984,0.0,63.329,63.983,0.0,1.0,3.3984,
145.151,3.459,0.0,64.579,65.225,0.0,1.0,3.459,
145.401,3.518,0.0,65.825,66.466,0.0,1.0,3.518,
145.651,3.5809,0.0,67.075,67.716,0.0,1.0,3.5809,
145.901,3.6414,0.0,68.32,68.962,0.0,1.0,3.6414,
146.151,3.7026,0.0,69.57,70.208,0.0,1.0,3.7026,
146.401,3.7608,0.0,70.816,71.45,0.0,1.0,3.7608,
146.651,3.8168,0.0,72.066,72.7,0.0,1.0,3.8168,
146.901,3.8676,0.0,73.312,73.945,0.0,1.0,3.8676,
147.151,3.928,0.0,74.562,75.195,0.0,1.0,3.928,
147.401,3.9894,0.0,75.808,76.445,0.0,1.0,3.9894,
147.651,4.0492,0.0,77.058,77.687,0.0,1.0,4.0492,
147.901,4.1031,0.0,78.304,78.937,0.0,1.0,4.1031,
148.151,4.1627,0.0,79.554,80.183,0.0,1.0,4.1627,
148.401,4.2262,0.0,80.8,81.433,0.0,1.0,4.2262,
148.651,4.289,0.0,82.05,82.675,0.0,1.0,4.289,
148.901,4.3503,0.0,83.295,83.925,0.0,1.0,4.3503,
149.151,4.4131,0.0,84.545,85.175,0.0,1.0,4.4131,
149.401,4.4659,0.0,85.791,86.416,0.0,1.0,4.4659,
149.651,4.5216,0.0,87.041,87.658,0.0,1.0,4.5216,
149.901,4.5843,0.0,88.287,88.9,0.0,1.0,4.5843,
150.151,4.6492,0.0,89.537,90.141,0.0,1.0,4.6492,
150.401,4.7182,0.0,90.783,91.387,0.0,1.0,4.7182,
150.651,4.7834,0.0,92.033,92.637,0.0,1.0,4.7834,
150.901,4.8465,0.0,93.279,93.879,0.0,1.0,4.8465,
151.151,4.9143,0.0,94.529,95.12,0.0,1.0,4.9143,
151.401,4.9812,0.0,95.779,96.366,0.0,1.0,4.9812,
151.651,5.0474,0.0,97.025,97.608,0.0,1.0,5.0474,
151.901,5.1076,0.0,98.275,98.85,0.0,1.0,5.1076,
152.151,5.1848,0.0,99.52,100.1,0.0,1.0,5.1848,
152.401,5.2569,0.0,100.77,101.341,0.0,1.0,5.2569,
152.651,5.3322,0.0,102.016,102.591,0.0,1.0,5.3322,
152.901,5.4044,0.0,103.266,103.837,0.0,1.0,5.4044,
153.151,5.4804,0.0,104.512,105.083,0.0,1.0,5.4804,
153.401,5.555,0.0,105.762,106.329,0.0,1.0,5.555,
153.651,5.6381,0.0,107.008,107.57,0.0,1.0,5.6381,
153.901,5.7216,0.0,108.258,108.816,0.0,1.0,5.7216,
154.151,5.8111,0.0,109.504,110.058,0.0,1.0,5.8111,
154.401,5.8994,0.0,110.754,111.308,0.0,1.0,5.8994,
154.651,5.9941,0.0,112.0,112.554,0.0,1.0,5.9941,
154.901,6.1011,0.0,113.25,113.8,0.0,1.0,6.1011,
155.151,6.2069,0.0,114.495,115.045,0.0,1.0,6.2069,
155.401,6.3366,0.0,115.745,116.291,0.0,1.0,6.3366,
155.651,6.4741,0.0,116.991,117.537,0.0,1.0,6.4741,
155.901,6.6416,0.0,118.241,118.787,0.0,1.0,6.6416,
156.151,6.8395,0.0,119.487,120.029,0.0,1.0,6.8395,
156.401,7.0786,0.0,120.737,121.275,0.0,1.0,7.0786,
156.651,7.404,0.0,121.983,122.52,0.0,1.0,7.404,
156.901,7.7923,0.0,123.233,123.77,0.0,1.0,7.7923,
157.151,8.2752,0.0,124.479,125.016,0.0,1.0,8.2752,
157.401,8.8356,0.0,125.729,126.262,0.0,1.0,8.8356,
157.651,9.4894,0.0,126.975,127.508,0.0,1.0,9.4894,
157.901,10.289,0.0,128.225,128.758,0.0,1.0,10.289,
158.151,11.0141,0.0,129.47,130.004,0.0,1.0,11.0141,
158.401,10.9024,0.0,130.72,131.25,0.0,1.0,10.9024,
158.651,6.9796,0.0,131.966,132.504,0.0,1.0,6.9796,
158.901,6.6344,0.0,133.216,133.758,0.0,1.0,6.6344,
159.151,6.6942,0.0,134.462,135.0,0.0,1.0,6.6942,
159.401,6.7582,0.0,135.712,136.25,0.0,1.0,6.7582,
159.651,6.8227,0.0,136.958,137.5,0.0,1.0,6.8227,
159.901,6.8837,0.0,138.208,138.75,0.0,1.0,6.8837,
160.151,6.9405,0.0,139.458,140.0,0.0,1.0,6.9405,
160.401,7.0062,0.0,140.704,141.241,0.0,1.0,7.0062,
160.651,7.0707,0.0,141.954,142.487,0.0,1.0,7.0707,
160.901,7.1321,0.0,143.2,143.733,0.0,1.0,7.1321,
161.151,7.196,0.0,144.45,144.979,0.0,1.0,7.196,
161.401,7.2605,0.0,145.695,146.225,0.0,1.0,7.2605,
161.651,7.3221,0.0,146.945,147.47,0.0,1.0,7.3221,
161.901,7.3919,0.0,148.191,148.716,0.0,1.0,7.3919,
162.151,7.4515,0.0,149.441,149.962,0.0,1.0,7.4515,
162.401,7.5159,0.0,150.687,151.208,0.0,1.0,7.5159,
162.651,7.5769,0.0,151.937,152.45,0.0,1.0,7.5769,
162.901,7.6443,0.0,153.183,153.695,0.0,1.0,7.6443,
163.151,7.7085,0.0,154.433,154.941,0.0,1.0,7.7085,
163.401,7.7671,0.0,155.679,156.191,0.0,1.0,7.7671,
163.651,7.8378,0.0,156.929,157.437,0.0,1.0,7.8378,
163.901,7.9015,0.0,158.175,158.683,0.0,1.0,7.9015,
164.151,7.9686,0.0,159.425,159.933,0.0,1.0,7.9686,
164.401,8.0357,0.0,160.67,161.175,0.0,1.0,8.0357,
164.651,8.1021,0.0,161.92,162.429,0.0,1.0,8.1021,
164.901,8.1688,0.0,163.166,163.67,0.0,1.0,8.1688,
165.151,8.2414,0.0,164.416,164.916,0.0,1.0,8.2414,
165.401,8.3071,0.0,165.662,166.17,0.0,1.0,8.3071,
165.651,8.3783,0.0,166.912,167.412,0.0,1.0,8.3783,
165.901,8.4479,0.0,168.158,168.662,0.0,1.0,8.4479,
166.151,8.5185,0.0,169.408,169.912,0.0,1.0,8.5185,
166.401,8.5878,0.0,170.654,171.162,0.0,1.0,8.5878,
166.651,8.6572,0.0,171.904,172.404,0.0,1.0,8.6572,
166.901,8.7306,0.0,173.15,173.645,0.0,1.0,8.7306,
167.151,8.8033,0.0,174.4,174.9,0.0,1.0,8.8033,
167.401,8.8754,0.0,175.645,176.141,0.0,1.0,8.8754,
167.651,8.9461,0.0,176.895,177.391,0.0,1.0,8.9461,
167.901,9.0186,0.0,178.141,178.633,0.0,1.0,9.0186,
168.151,9.093,0.0,179.391,179.879,0.0,1.0,9.093,
168.401,9.1653,0.0,180.637,181.129,0.0,1.0,9.1653,
168.651,9.2397,0.0,181.887,182.37,0.0,1.0,9.2397,
168.901,9.3152,0.0,183.137,183.625,0.0,1.0,9.3152,
169.151,9.3919,0.0,184.383,184.875,0.0,1.0,9.3919,
169.401,9.4644,0.0,185.633,186.12,0.0,1.0,9.4644,
169.651,9.5401,0.0,186.879,187.37,0.0,1.0,9.5401,
169.901,9.6179,0.0,188.129,188.612,0.0,1.0,9.6179,
170.151,9.696,0.0,189.375,189.862,0.0,1.0,9.696,
170.401,9.7717,0.0,190.625,191.104,0.0,1.0,9.7717,
170.651,9.8547,0.0,191.87,192.354,0.0,1.0,9.8547,
170.901,9.9325,0.0,193.12,193.604,0.0,1.0,9.9325,
171.151,10.0129,0.0,194.366,194.85,0.0,1.0,10.0129,
171.401,10.0935,0.0,195.616,196.1,0.0,1.0,10.0935,
171.651,10.1784,0.0,196.862,197.337,0.0,1.0,10.1784,
171.901,10.2603,0.0,198.112,198.583,0.0,1.0,10.2603,
172.151,10.3422,0.0,199.358,199.829,0.0,1.0,10.3422,
172.401,9.9222,0.0,199.391,200.116,0.0,1.0,9.9222,
172.651,9.213,0.0,198.141,198.879,0.0,1.0,9.213,
172.901,9.154,0.0,196.895,197.637,0.0,1.0,9.154,
173.151,9.0802,0.0,195.645,196.391,0.0,1.0,9.0802,
173.401,9.0085,0.0,194.4,195.145,0.0,1.0,9.0085,
173.651,8.9414,0.0,193.15,193.9,0.0,1.0,8.9414,
173.901,8.8661,0.0,191.904,192.65,0.0,1.0,8.8661,
174.151,8.7957,0.0,190.654,191.408,0.0,1.0,8.7957,
174.401,8.7272,0.0,189.408,190.154,0.0,1.0,8.7272,
174.651,8.6546,0.0,188.158,188.908,0.0,1.0,8.6546,
174.901,8.5838,0.0,186.912,187.662,0.0,1.0,8.5838,
175.151,8.5182,0.0,185.662,186.408,0.0,1.0,8.5182,
175.401,8.4504,0.0,184.416,185.162,0.0,1.0,8.4504,
175.651,8.3823,0.0,183.166,183.912,0.0,1.0,8.3823,
175.901,8.3113,0.0,181.92,182.662,0.0,1.0,8.3113,
176.151,8.2457,0.0,180.67,181.416,0.0,1.0,8.2457,
176.401,8.177,0.0,179.425,180.166,0.0,1.0,8.177,
176.651,8.1117,0.0,178.175,178.925,0.0,1.0,8.1117,
176.901,8.0455,0.0,176.929,177.679,0.0,1.0,8.0455,
177.151,7.9793,0.0,175.679,176.433,0.0,1.0,7.9793,
177.401,7.9139,0.0,174.433,175.183,0.0,1.0,7.9139,
177.651,7.8485,0.0,173.183,173.937,0.0,1.0,7.8485,
177.901,7.7837,0.0,171.937,172.687,0.0,1.0,7.7837,
178.151,7.7167,0.0,170.687,171.441,0.0,1.0,7.7167,
178.401,7.6491,0.0,169.441,170.195,0.0,1.0,7.6491,
178.651,7.5869,0.0,168.191,168.95,0.0,1.0,7.5869,
178.901,7.5232,0.0,166.945,167.7,0.0,1.0,7.5232,
179.151,7.4553,0.0,165.695,166.45,0.0,1.0,7.4553,
179.401,7.3931,0.0,164.45,165.2,0.0,1.0,7.3931,
179.651,7.33,0.0,163.2,163.95,0.0,1.0,7.33,
179.901,7.2664,0.0,161.95,162.708,0.0,1.0,7.2664,
180.151,7.2035,0.0,160.704,161.462,0.0,1.0,7.2035,
180.401,7.1424,0.0,159.454,160.212,0.0,1.0,7.1424,
180.651,7.0769,0.0,158.208,158.966,0.0,1.0,7.0769,
180.901,7.0159,0.0,156.958,157.72,0.0,1.0,7.0159,
181.151,6.9589,0.0,155.712,156.47,0.0,1.0,6.9589,
181.401,6.8997,0.0,154.462,155.225,0.0,1.0,6.8997,
181.651,6.8377,0.0,153.216,153.979,0.0,1.0,6.8377,
181.901,6.7728,0.0,151.966,152.729,0.0,1.0,6.7728,
182.151,6.7137,0.0,150.72,151.483,0.0,1.0,6.7137,
182.401,6.6524,0.0,149.47,150.237,0.0,1.0,6.6524,
182.651,6.5911,0.0,148.225,148.995,0.0,1.0,6.5911,
182.901,6.5321,0.0,146.975,147.745,0.0,1.0,6.5321,
183.151,6.4719,0.0,145.729,146.504,0.0,1.0,6.4719,
183.401,6.4102,0.0,144.479,145.258,0.0,1.0,6.4102,
183.651,6.3505,0.0,143.233,144.012,0.0,1.0,6.3505,
183.901,6.2912,0.0,141.983,142.766,0.0,1.0,6.2912,
184.151,6.234,0.0,140.737,141.52,0.0,1.0,6.234,
184.401,6.1731,0.0,139.487,140.279,0.0,1.0,6.1731,
184.651,6.1163,0.0,138.241,139.033,0.0,1.0,6.1163,
184.901,6.0535,0.0,136.991,137.787,0.0,1.0,6.0535,
185.151,5.9972,0.0,135.745,136.533,0.0,1.0,5.9972,
185.401,5.9403,0.0,134.495,135.279,0.0,1.0,5.9403,
185.651,5.8757,0.0,133.25,134.033,0.0,1.0,5.8757,
185.901,5.8236,0.0,132.0,132.8,0.0,1.0,5.8236,
186.151,5.764,0.0,130.754,131.541,0.0,1.0,5.764,
186.401,5.7073,0.0,129.504,130.295,0.0,1.0,5.7073,
186.651,5.65,0.0,128.258,129.041,0.0,1.0,5.65,
186.901,5.5928,0.0,127.008,127.8,0.0,1.0,5.5928,
187.151,5.5389,0.0,125.762,126.545,0.0,1.0,5.5389,
187.401,5.4789,0.0,124.512,125.304,0.0,1.0,5.4789,
187.651,5.4121,0.0,123.266,124.054,0.0,1.0,5.4121,
187.901,5.2504,0.0,122.016,122.816,0.0,1.0,5.2504,
188.151,3.4808,0.0,120.77,121.57,0.0,1.0,3.4808,
188.401,-0.5871,0.0,119.52,120.329,0.0,1.0,-0.5871,
188.651,-0.5702,0.0,118.27,119.087,0.0,1.0,-0.5702,
188.901,1.0944,0.0,117.025,117.833,0.0,1.0,1.0944,
189.151,2.5207,0.0,115.775,116.587,0.0,1.0,2.5207,
189.401,3.3206,0.0,114.529,115.341,0.0,1.0,3.3206,
189.651,3.7105,0.0,113.279,114.095,0.0,1.0,3.7105,
189.901,3.9154,0.0,112.033,112.845,0.0,1.0,3.9154,
190.151,4.0287,0.0,110.783,111.608,0.0,1.0,4.0287,
190.401,4.0947,0.0,109.537,110.362,0.0,1.0,4.0947,
190.651,4.135,0.0,108.287,109.108,0.0,1.0,4.135,
190.901,4.1566,0.0,107.041,107.862,0.0,1.0,4.1566,
191.151,4.1613,0.0,105.791,106.62,0.0,1.0,4.1613,
191.401,4.1545,0.0,104.545,105.379,0.0,1.0,4.1545,
191.651,4.1462,0.0,103.295,104.133,0.0,1.0,4.1462,
191.901,4.1285,0.0,102.05,102.887,0.0,1.0,4.1285,
192.151,4.1029,0.0,100.8,101.645,0.0,1.0,4.1029,
192.401,4.0802,0.0,99.554,100.395,0.0,1.0,4.0802,
192.651,4.0496,0.0,98.304,99.15,0.0,1.0,4.0496,
192.901,4.0169,0.0,97.058,97.904,0.0,1.0,4.0169,
193.151,3.9836,0.0,95.808,96.658,0.0,1.0,3.9836,
193.401,3.9452,0.0,94.562,95.42,0.0,1.0,3.9452,
193.651,3.9081,0.0,93.312,94.17,0.0,1.0,3.9081,
193.901,3.8694,0.0,92.066,92.925,0.0,1.0,3.8694,
194.151,3.8283,0.0,90.816,91.683,0.0,1.0,3.8283,
194.401,3.7823,0.0,89.57,90.441,0.0,1.0,3.7823,
194.651,3.7369,0.0,88.32,89.2,0.0,1.0,3.7369,
194.901,3.6948,0.0,87.075,87.954,0.0,1.0,3.6948,
195.151,3.6491,0.0,85.825,86.716,0.0,1.0,3.6491,
195.401,3.6004,0.0,84.579,85.475,0.0,1.0,3.6004,
195.651,3.5526,0.0,83.329,84.229,0.0,1.0,3.5526,
195.901,3.5052,0.0,82.083,82.991,0.0,1.0,3.5052,
196.151,3.4619,0.0,80.833,81.741,0.0,1.0,3.4619,
196.401,3.428,0.0,79.587,80.487,0.0,1.0,3.428,
196.651,3.3912,0.0,78.337,79.245,0.0,1.0,3.3912,
196.901,3.3573,0.0,77.091,78.0,0.0,1.0,3.3573,
197.151,3.3207,0.0,75.841,76.754,0.0,1.0,3.3207,
197.401,3.2838,0.0,74.595,75.504,0.0,1.0,3.2838,
197.651,3.2428,0.0,73.345,74.266,0.0,1.0,3.2428,
197.901,3.1997,0.0,72.095,73.02,0.0,1.0,3.1997,
198.151,3.1608,0.0,70.85,71.77,0.0,1.0,3.1608,
198.401,3.118,0.0,69.6,70.533,0.0,1.0,3.118,
198.651,3.0774,0.0,68.354,69.283,0.0,1.0,3.0774,
198.901,3.0361,0.0,67.104,68.045,0.0,1.0,3.0361,
199.151,2.998,0.0,65.858,66.8,0.0,1.0,2.998,
199.401,2.9555,0.0,64.608,65.55,0.0,1.0,2.9555,
199.651,2.9145,0.0,63.362,64.312,0.0,1.0,2.9145,
199.901,2.8728,0.0,62.112,63.062,0.0,1.0,2.8728,
200.151,2.8299,0.0,60.866,61.825,0.0,1.0,2.8299,
200.401,2.7899,0.0,59.616,60.583,0.0,1.0,2.7899,
200.651,2.7468,0.0,58.37,59.345,0.0,1.0,2.7468,
200.901,2.7039,0.0,57.12,58.104,0.0,1.0,2.7039,
201.151,2.6599,0.0,55.875,56.858,0.0,1.0,2.6599,
201.401,2.6172,0.0,54.625,55.616,0.0,1.0,2.6172,
201.651,2.5759,0.0,53.379,54.379,0.0,1.0,2.5759,
201.901,2.5338,0.0,52.129,53.137,0.0,1.0,2.5338,
202.151,2.4919,0.0,50.883,51.9,0.0,1.0,2.4919,
202.401,2.4485,0.0,49.633,50.658,0.0,1.0,2.4485,
202.651,2.4043,0.0,48.387,49.429,0.0,1.0,2.4043,
202.901,2.3667,0.0,47.137,48.191,0.0,1.0,2.3667,
203.151,2.3184,0.0,45.891,46.95,0.0,1.0,2.3184,
203.401,2.2868,0.0,44.641,45.72,0.0,1.0,2.2868,
203.651,2.2464,0.0,43.395,44.479,0.0,1.0,2.2464,
203.901,2.2052,0.0,42.145,43.245,0.0,1.0,2.2052,
204.151,2.1672,0.0,40.9,42.016,0.0,1.0,2.1672,
204.401,2.1288,0.0,39.65,40.779,0.0,1.0,2.1288,
204.651,2.0917,0.0,38.404,39.55,0.0,1.0,2.0917,
204.901,2.0519,0.0,37.154,38.32,0.0,1.0,2.0519,
205.151,2.0147,0.0,35.908,37.087,0.0,1.0,2.0147,
205.401,1.9808,0.0,34.658,35.858,0.0,1.0,1.9808,
205.651,1.9466,0.0,33.412,34.629,0.0,1.0,1.9466,
205.901,1.9151,0.0,32.162,33.404,0.0,1.0,1.9151,
206.151,1.88,0.0,30.916,32.175,0.0,1.0,1.88,
206.301,1.8638,0.0,30.166,31.445,0.0,1.0,1.8638,