File: Chapter4_Crystallinity-measurement/data/DSC/HDPE_2.csv
Time,Unsubtracted Heat Flow,Baseline Heat Flow,Program Temperature,Sample Temperature,Approx. Gas Flow,Heat Flow Calibration,Uncorrected Heat Flow,
0.0,2.0739,0.0,30.0,31.087,0.0,1.0,2.0739,
0.833333,2.0824,0.0,30.0,31.083,0.0,1.0,2.0824,
1.666667,2.0931,0.0,30.0,31.075,0.0,1.0,2.0931,
2.152333,1.9425,0.0,30.741,31.554,0.0,1.0,1.9425,
2.402333,2.4668,0.0,31.987,32.779,0.0,1.0,2.4668,
2.652333,2.5173,0.0,33.237,34.008,0.0,1.0,2.5173,
2.902333,2.5873,0.0,34.483,35.237,0.0,1.0,2.5873,
3.152333,2.656,0.0,35.733,36.475,0.0,1.0,2.656,
3.402333,2.726,0.0,36.979,37.716,0.0,1.0,2.726,
3.652333,2.795,0.0,38.229,38.941,0.0,1.0,2.795,
3.902333,2.8661,0.0,39.475,40.183,0.0,1.0,2.8661,
4.152333,2.9362,0.0,40.725,41.42,0.0,1.0,2.9362,
4.402333,3.007,0.0,41.97,42.654,0.0,1.0,3.007,
4.652333,3.0782,0.0,43.22,43.891,0.0,1.0,3.0782,
4.902333,3.1469,0.0,44.466,45.129,0.0,1.0,3.1469,
5.152333,3.213,0.0,45.716,46.366,0.0,1.0,3.213,
5.402333,3.2821,0.0,46.962,47.608,0.0,1.0,3.2821,
5.652333,3.3521,0.0,48.212,48.85,0.0,1.0,3.3521,
5.902333,3.4214,0.0,49.458,50.087,0.0,1.0,3.4214,
6.152333,3.4917,0.0,50.708,51.329,0.0,1.0,3.4917,
6.402333,3.5634,0.0,51.958,52.57,0.0,1.0,3.5634,
6.652333,3.634,0.0,53.204,53.808,0.0,1.0,3.634,
6.902333,3.7039,0.0,54.454,55.058,0.0,1.0,3.7039,
7.152333,3.7722,0.0,55.7,56.291,0.0,1.0,3.7722,
7.402333,3.8408,0.0,56.95,57.537,0.0,1.0,3.8408,
7.652333,3.9101,0.0,58.195,58.783,0.0,1.0,3.9101,
7.902333,3.9839,0.0,59.445,60.025,0.0,1.0,3.9839,
8.152333,4.0563,0.0,60.691,61.262,0.0,1.0,4.0563,
8.402333,4.1284,0.0,61.941,62.5,0.0,1.0,4.1284,
8.652333,4.202,0.0,63.187,63.75,0.0,1.0,4.202,
8.902333,4.2712,0.0,64.437,64.995,0.0,1.0,4.2712,
9.152333,4.3449,0.0,65.683,66.241,0.0,1.0,4.3449,
9.402333,4.4178,0.0,66.933,67.483,0.0,1.0,4.4178,
9.652333,4.4909,0.0,68.179,68.733,0.0,1.0,4.4909,
9.902333,4.5635,0.0,69.429,69.97,0.0,1.0,4.5635,
10.1523,4.6352,0.0,70.675,71.22,0.0,1.0,4.6352,
10.4023,4.7111,0.0,71.925,72.462,0.0,1.0,4.7111,
10.6523,4.787,0.0,73.17,73.712,0.0,1.0,4.787,
10.9023,4.8601,0.0,74.42,74.958,0.0,1.0,4.8601,
11.1523,4.9367,0.0,75.666,76.2,0.0,1.0,4.9367,
11.4023,5.0132,0.0,76.916,77.458,0.0,1.0,5.0132,
11.6523,5.089,0.0,78.162,78.695,0.0,1.0,5.089,
11.9023,5.1645,0.0,79.412,79.945,0.0,1.0,5.1645,
12.1523,5.2373,0.0,80.658,81.191,0.0,1.0,5.2373,
12.4023,5.3153,0.0,81.908,82.441,0.0,1.0,5.3153,
12.6523,5.3922,0.0,83.154,83.691,0.0,1.0,5.3922,
12.9023,5.4675,0.0,84.404,84.933,0.0,1.0,5.4675,
13.1523,5.5435,0.0,85.65,86.179,0.0,1.0,5.5435,
13.4023,5.6198,0.0,86.9,87.416,0.0,1.0,5.6198,
13.6523,5.7002,0.0,88.145,88.662,0.0,1.0,5.7002,
13.9023,5.7787,0.0,89.395,89.904,0.0,1.0,5.7787,
14.1523,5.8547,0.0,90.641,91.145,0.0,1.0,5.8547,
14.4023,5.9351,0.0,91.891,92.395,0.0,1.0,5.9351,
14.6523,6.0144,0.0,93.137,93.637,0.0,1.0,6.0144,
14.9023,6.0943,0.0,94.387,94.883,0.0,1.0,6.0943,
15.1523,6.1734,0.0,95.637,96.129,0.0,1.0,6.1734,
15.4023,6.2544,0.0,96.883,97.37,0.0,1.0,6.2544,
15.6523,6.3385,0.0,98.133,98.616,0.0,1.0,6.3385,
15.9023,6.4162,0.0,99.379,99.858,0.0,1.0,6.4162,
16.1523,6.5052,0.0,100.629,101.104,0.0,1.0,6.5052,
16.4023,6.5906,0.0,101.875,102.358,0.0,1.0,6.5906,
16.6523,6.6767,0.0,103.125,103.6,0.0,1.0,6.6767,
16.9023,6.7619,0.0,104.37,104.841,0.0,1.0,6.7619,
17.1523,6.8512,0.0,105.62,106.087,0.0,1.0,6.8512,
17.4023,6.9439,0.0,106.866,107.333,0.0,1.0,6.9439,
17.6523,7.0392,0.0,108.116,108.583,0.0,1.0,7.0392,
17.9023,7.1264,0.0,109.362,109.82,0.0,1.0,7.1264,
18.1523,7.2288,0.0,110.612,111.07,0.0,1.0,7.2288,
18.4023,7.3465,0.0,111.858,112.312,0.0,1.0,7.3465,
18.6523,7.4764,0.0,113.108,113.562,0.0,1.0,7.4764,
18.9023,7.6064,0.0,114.354,114.808,0.0,1.0,7.6064,
19.1523,7.7453,0.0,115.604,116.054,0.0,1.0,7.7453,
19.4023,7.9076,0.0,116.85,117.3,0.0,1.0,7.9076,
19.6523,8.0793,0.0,118.1,118.55,0.0,1.0,8.0793,
19.9023,8.2544,0.0,119.345,119.791,0.0,1.0,8.2544,
20.1523,8.5374,0.0,120.595,121.041,0.0,1.0,8.5374,
20.4023,8.8577,0.0,121.841,122.287,0.0,1.0,8.8577,
20.6523,9.3464,0.0,123.091,123.533,0.0,1.0,9.3464,
20.9023,10.0629,0.0,124.337,124.775,0.0,1.0,10.0629,
21.1523,10.9238,0.0,125.587,126.02,0.0,1.0,10.9238,
21.4023,11.9633,0.0,126.833,127.266,0.0,1.0,11.9633,
21.6523,12.6435,0.0,128.083,128.516,0.0,1.0,12.6435,
21.9023,11.6627,0.0,129.329,129.762,0.0,1.0,11.6627,
22.1523,8.2741,0.0,130.579,131.02,0.0,1.0,8.2741,
22.4023,8.2366,0.0,131.825,132.266,0.0,1.0,8.2366,
22.6523,8.3178,0.0,133.075,133.512,0.0,1.0,8.3178,
22.9023,8.3969,0.0,134.32,134.762,0.0,1.0,8.3969,
23.1523,8.4778,0.0,135.57,136.012,0.0,1.0,8.4778,
23.4023,8.5568,0.0,136.816,137.262,0.0,1.0,8.5568,
23.6523,8.6361,0.0,138.066,138.512,0.0,1.0,8.6361,
23.9023,8.7167,0.0,139.316,139.758,0.0,1.0,8.7167,
24.1523,8.7975,0.0,140.562,141.004,0.0,1.0,8.7975,
24.4023,8.8752,0.0,141.812,142.25,0.0,1.0,8.8752,
24.6523,8.9575,0.0,143.058,143.491,0.0,1.0,8.9575,
24.9023,9.0375,0.0,144.308,144.737,0.0,1.0,9.0375,
25.1523,9.1142,0.0,145.554,145.983,0.0,1.0,9.1142,
25.4023,9.1954,0.0,146.804,147.229,0.0,1.0,9.1954,
25.6523,9.2768,0.0,148.05,148.475,0.0,1.0,9.2768,
25.9023,9.3583,0.0,149.3,149.725,0.0,1.0,9.3583,
26.1523,9.4365,0.0,150.545,150.962,0.0,1.0,9.4365,
26.4023,9.519,0.0,151.795,152.216,0.0,1.0,9.519,
26.6523,9.5926,0.0,153.041,153.458,0.0,1.0,9.5926,
26.9023,9.6793,0.0,154.291,154.7,0.0,1.0,9.6793,
27.1523,9.7624,0.0,155.537,155.954,0.0,1.0,9.7624,
27.4023,9.8434,0.0,156.787,157.195,0.0,1.0,9.8434,
27.6523,9.9239,0.0,158.033,158.445,0.0,1.0,9.9239,
27.9023,10.01,0.0,159.283,159.695,0.0,1.0,10.01,
28.1523,10.0948,0.0,160.529,160.941,0.0,1.0,10.0948,
28.4023,10.1725,0.0,161.779,162.187,0.0,1.0,10.1725,
28.6523,10.258,0.0,163.025,163.429,0.0,1.0,10.258,
28.9023,10.342,0.0,164.275,164.683,0.0,1.0,10.342,
29.1523,10.4245,0.0,165.52,165.933,0.0,1.0,10.4245,
29.4023,10.5065,0.0,166.77,167.179,0.0,1.0,10.5065,
29.6523,10.5938,0.0,168.016,168.429,0.0,1.0,10.5938,
29.9023,10.6786,0.0,169.266,169.675,0.0,1.0,10.6786,
30.1523,10.76,0.0,170.512,170.92,0.0,1.0,10.76,
30.4023,10.8473,0.0,171.762,172.166,0.0,1.0,10.8473,
30.6523,10.9323,0.0,173.008,173.412,0.0,1.0,10.9323,
30.9023,11.0178,0.0,174.258,174.666,0.0,1.0,11.0178,
31.1523,11.1041,0.0,175.504,175.912,0.0,1.0,11.1041,
31.4023,11.1924,0.0,176.754,177.162,0.0,1.0,11.1924,
31.6523,11.2791,0.0,178.0,178.404,0.0,1.0,11.2791,
31.9023,11.3681,0.0,179.25,179.654,0.0,1.0,11.3681,
32.1523,11.4551,0.0,180.495,180.895,0.0,1.0,11.4551,
32.4023,11.5454,0.0,181.745,182.145,0.0,1.0,11.5454,
32.6523,11.6322,0.0,182.991,183.395,0.0,1.0,11.6322,
32.9023,11.724,0.0,184.241,184.641,0.0,1.0,11.724,
33.1523,11.816,0.0,185.491,185.891,0.0,1.0,11.816,
33.4023,11.9054,0.0,186.737,187.141,0.0,1.0,11.9054,
33.6523,11.9997,0.0,187.987,188.387,0.0,1.0,11.9997,
33.9023,12.0892,0.0,189.233,189.641,0.0,1.0,12.0892,
34.1523,12.1832,0.0,190.483,190.883,0.0,1.0,12.1832,
34.4023,12.275,0.0,191.729,192.137,0.0,1.0,12.275,
34.6523,12.3695,0.0,192.979,193.383,0.0,1.0,12.3695,
34.9023,12.4632,0.0,194.225,194.633,0.0,1.0,12.4632,
35.1523,12.5598,0.0,195.475,195.879,0.0,1.0,12.5598,
35.4023,12.6524,0.0,196.72,197.125,0.0,1.0,12.6524,
35.6523,12.7459,0.0,197.97,198.375,0.0,1.0,12.7459,
35.9023,12.8412,0.0,199.216,199.612,0.0,1.0,12.8412,
36.1523,12.5946,0.0,199.533,200.183,0.0,1.0,12.5946,
36.4023,11.6323,0.0,198.283,198.945,0.0,1.0,11.6323,
36.6523,11.5691,0.0,197.037,197.704,0.0,1.0,11.5691,
36.9023,11.4724,0.0,195.787,196.466,0.0,1.0,11.4724,
37.1523,11.3782,0.0,194.541,195.216,0.0,1.0,11.3782,
37.4023,11.2865,0.0,193.291,193.975,0.0,1.0,11.2865,
37.6523,11.1898,0.0,192.045,192.725,0.0,1.0,11.1898,
37.9023,11.0975,0.0,190.795,191.475,0.0,1.0,11.0975,
38.1523,11.0074,0.0,189.55,190.229,0.0,1.0,11.0074,
38.4023,10.9145,0.0,188.3,188.983,0.0,1.0,10.9145,
38.6523,10.8243,0.0,187.054,187.733,0.0,1.0,10.8243,
38.9023,10.7339,0.0,185.804,186.483,0.0,1.0,10.7339,
39.1523,10.645,0.0,184.558,185.241,0.0,1.0,10.645,
39.4023,10.5581,0.0,183.308,183.991,0.0,1.0,10.5581,
39.6523,10.47,0.0,182.062,182.741,0.0,1.0,10.47,
39.9023,10.3762,0.0,180.812,181.495,0.0,1.0,10.3762,
40.1523,10.2902,0.0,179.566,180.25,0.0,1.0,10.2902,
40.4023,10.202,0.0,178.316,179.004,0.0,1.0,10.202,
40.6523,10.1154,0.0,177.07,177.762,0.0,1.0,10.1154,
40.9023,10.0301,0.0,175.82,176.512,0.0,1.0,10.0301,
41.1523,9.9448,0.0,174.575,175.266,0.0,1.0,9.9448,
41.4023,9.8609,0.0,173.325,174.016,0.0,1.0,9.8609,
41.6523,9.7794,0.0,172.079,172.77,0.0,1.0,9.7794,
41.9023,9.6959,0.0,170.829,171.525,0.0,1.0,9.6959,
42.1523,9.6125,0.0,169.583,170.279,0.0,1.0,9.6125,
42.4023,9.5298,0.0,168.333,169.029,0.0,1.0,9.5298,
42.6523,9.4511,0.0,167.087,167.779,0.0,1.0,9.4511,
42.9023,9.3692,0.0,165.837,166.537,0.0,1.0,9.3692,
43.1523,9.2873,0.0,164.591,165.287,0.0,1.0,9.2873,
43.4023,9.2085,0.0,163.341,164.037,0.0,1.0,9.2085,
43.6523,9.123,0.0,162.091,162.795,0.0,1.0,9.123,
43.9023,9.0368,0.0,160.845,161.545,0.0,1.0,9.0368,
44.1523,8.9517,0.0,159.595,160.304,0.0,1.0,8.9517,
44.4023,8.8688,0.0,158.35,159.054,0.0,1.0,8.8688,
44.6523,8.7837,0.0,157.1,157.808,0.0,1.0,8.7837,
44.9023,8.7019,0.0,155.854,156.562,0.0,1.0,8.7019,
45.1523,8.6225,0.0,154.604,155.316,0.0,1.0,8.6225,
45.4023,8.5423,0.0,153.358,154.066,0.0,1.0,8.5423,
45.6523,8.4585,0.0,152.108,152.825,0.0,1.0,8.4585,
45.9023,8.3753,0.0,150.862,151.583,0.0,1.0,8.3753,
46.1523,8.2951,0.0,149.612,150.337,0.0,1.0,8.2951,
46.4023,8.2132,0.0,148.366,149.1,0.0,1.0,8.2132,
46.6523,8.1305,0.0,147.116,147.85,0.0,1.0,8.1305,
46.9023,8.0537,0.0,145.87,146.608,0.0,1.0,8.0537,
47.1523,7.9708,0.0,144.62,145.362,0.0,1.0,7.9708,
47.4023,7.8869,0.0,143.375,144.116,0.0,1.0,7.8869,
47.6523,7.807,0.0,142.125,142.875,0.0,1.0,7.807,
47.9023,7.7252,0.0,140.879,141.633,0.0,1.0,7.7252,
48.1523,7.6441,0.0,139.629,140.387,0.0,1.0,7.6441,
48.4023,7.5664,0.0,138.383,139.145,0.0,1.0,7.5664,
48.6523,7.4837,0.0,137.133,137.9,0.0,1.0,7.4837,
48.9023,7.4023,0.0,135.887,136.65,0.0,1.0,7.4023,
49.1523,7.3211,0.0,134.637,135.4,0.0,1.0,7.3211,
49.4023,7.2425,0.0,133.391,134.154,0.0,1.0,7.2425,
49.6523,7.1675,0.0,132.141,132.904,0.0,1.0,7.1675,
49.9023,7.0876,0.0,130.895,131.662,0.0,1.0,7.0876,
50.1523,7.011,0.0,129.645,130.42,0.0,1.0,7.011,
50.4023,6.9302,0.0,128.4,129.17,0.0,1.0,6.9302,
50.6523,6.8545,0.0,127.15,127.929,0.0,1.0,6.8545,
50.9023,6.7762,0.0,125.904,126.679,0.0,1.0,6.7762,
51.1523,6.6999,0.0,124.654,125.433,0.0,1.0,6.6999,
51.4023,6.623,0.0,123.408,124.191,0.0,1.0,6.623,
51.6523,6.4957,0.0,122.158,122.941,0.0,1.0,6.4957,
51.9023,5.2916,0.0,120.912,121.704,0.0,1.0,5.2916,
52.1523,1.4136,0.0,119.662,120.462,0.0,1.0,1.4136,
52.4023,0.965,0.0,118.412,119.216,0.0,1.0,0.965,
52.6523,2.4105,0.0,117.166,117.97,0.0,1.0,2.4105,
52.9023,3.6874,0.0,115.916,116.72,0.0,1.0,3.6874,
53.1523,4.4596,0.0,114.67,115.479,0.0,1.0,4.4596,
53.4023,4.8291,0.0,113.42,114.233,0.0,1.0,4.8291,
53.6523,5.0111,0.0,112.175,112.987,0.0,1.0,5.0111,
53.9023,5.1011,0.0,110.925,111.745,0.0,1.0,5.1011,
54.1523,5.1405,0.0,109.679,110.5,0.0,1.0,5.1405,
54.4023,5.152,0.0,108.429,109.254,0.0,1.0,5.152,
54.6523,5.1485,0.0,107.183,108.012,0.0,1.0,5.1485,
54.9023,5.1302,0.0,105.933,106.766,0.0,1.0,5.1302,
55.1523,5.1051,0.0,104.687,105.529,0.0,1.0,5.1051,
55.4023,5.0708,0.0,103.437,104.283,0.0,1.0,5.0708,
55.6523,5.0334,0.0,102.191,103.045,0.0,1.0,5.0334,
55.9023,4.9889,0.0,100.941,101.8,0.0,1.0,4.9889,
56.1523,4.9407,0.0,99.695,100.558,0.0,1.0,4.9407,
56.4023,4.8901,0.0,98.445,99.308,0.0,1.0,4.8901,
56.6523,4.8332,0.0,97.2,98.062,0.0,1.0,4.8332,
56.9023,4.7822,0.0,95.95,96.829,0.0,1.0,4.7822,
57.1523,4.7254,0.0,94.704,95.583,0.0,1.0,4.7254,
57.4023,4.6677,0.0,93.454,94.345,0.0,1.0,4.6677,
57.6523,4.6054,0.0,92.208,93.1,0.0,1.0,4.6054,
57.9023,4.544,0.0,90.958,91.858,0.0,1.0,4.544,
58.1523,4.481,0.0,89.712,90.62,0.0,1.0,4.481,
58.4023,4.4186,0.0,88.462,89.383,0.0,1.0,4.4186,
58.6523,4.3518,0.0,87.216,88.137,0.0,1.0,4.3518,
58.9023,4.2867,0.0,85.966,86.9,0.0,1.0,4.2867,
59.1523,4.2202,0.0,84.72,85.658,0.0,1.0,4.2202,
59.4023,4.1547,0.0,83.47,84.42,0.0,1.0,4.1547,
59.6523,4.0917,0.0,82.225,83.175,0.0,1.0,4.0917,
59.9023,4.0307,0.0,80.975,81.933,0.0,1.0,4.0307,
60.1523,3.9719,0.0,79.729,80.691,0.0,1.0,3.9719,
60.4023,3.9219,0.0,78.479,79.441,0.0,1.0,3.9219,
60.6523,3.8668,0.0,77.233,78.2,0.0,1.0,3.8668,
60.9023,3.8139,0.0,75.983,76.95,0.0,1.0,3.8139,
61.1523,3.7582,0.0,74.737,75.716,0.0,1.0,3.7582,
61.4023,3.7035,0.0,73.487,74.47,0.0,1.0,3.7035,
61.6523,3.6476,0.0,72.237,73.22,0.0,1.0,3.6476,
61.9023,3.5924,0.0,70.991,71.983,0.0,1.0,3.5924,
62.1523,3.5367,0.0,69.741,70.737,0.0,1.0,3.5367,
62.4023,3.4796,0.0,68.495,69.504,0.0,1.0,3.4796,
62.6523,3.4224,0.0,67.245,68.254,0.0,1.0,3.4224,
62.9023,3.3631,0.0,66.0,67.012,0.0,1.0,3.3631,
63.1523,3.3052,0.0,64.75,65.775,0.0,1.0,3.3052,
63.4023,3.2475,0.0,63.504,64.533,0.0,1.0,3.2475,
63.6523,3.1891,0.0,62.254,63.291,0.0,1.0,3.1891,
63.9023,3.1312,0.0,61.008,62.045,0.0,1.0,3.1312,
64.1523,3.0746,0.0,59.758,60.808,0.0,1.0,3.0746,
64.4023,3.0152,0.0,58.512,59.575,0.0,1.0,3.0152,
64.6523,2.9563,0.0,57.262,58.337,0.0,1.0,2.9563,
64.9023,2.8992,0.0,56.016,57.1,0.0,1.0,2.8992,
65.1523,2.8428,0.0,54.766,55.862,0.0,1.0,2.8428,
65.4023,2.7849,0.0,53.52,54.625,0.0,1.0,2.7849,
65.6523,2.7295,0.0,52.27,53.387,0.0,1.0,2.7295,
65.9023,2.6749,0.0,51.025,52.154,0.0,1.0,2.6749,
66.1523,2.6208,0.0,49.775,50.92,0.0,1.0,2.6208,
66.4023,2.5643,0.0,48.529,49.687,0.0,1.0,2.5643,
66.6523,2.5096,0.0,47.279,48.45,0.0,1.0,2.5096,
66.9023,2.4577,0.0,46.033,47.22,0.0,1.0,2.4577,
67.1523,2.4069,0.0,44.783,45.983,0.0,1.0,2.4069,
67.4023,2.3544,0.0,43.537,44.754,0.0,1.0,2.3544,
67.6523,2.2997,0.0,42.287,43.525,0.0,1.0,2.2997,
67.9023,2.2531,0.0,41.041,42.291,0.0,1.0,2.2531,
68.1523,2.2041,0.0,39.791,41.066,0.0,1.0,2.2041,
68.4023,2.1529,0.0,38.545,39.841,0.0,1.0,2.1529,
68.6523,2.1061,0.0,37.295,38.616,0.0,1.0,2.1061,
68.9023,2.066,0.0,36.05,37.391,0.0,1.0,2.066,
69.1523,2.0219,0.0,34.8,36.17,0.0,1.0,2.0219,
69.4023,1.9818,0.0,33.554,34.945,0.0,1.0,1.9818,
69.6523,1.9505,0.0,32.304,33.733,0.0,1.0,1.9505,
69.9023,1.9137,0.0,31.058,32.512,0.0,1.0,1.9137,
70.1523,0.5462,0.0,30.187,31.345,0.0,1.0,0.5462,
70.4023,2.2602,0.0,31.433,32.312,0.0,1.0,2.2602,
70.6523,2.332,0.0,32.683,33.545,0.0,1.0,2.332,
70.9023,2.3848,0.0,33.929,34.779,0.0,1.0,2.3848,
71.1523,2.449,0.0,35.179,36.012,0.0,1.0,2.449,
71.4023,2.5151,0.0,36.425,37.25,0.0,1.0,2.5151,
71.6523,2.5785,0.0,37.675,38.487,0.0,1.0,2.5785,
71.9023,2.6483,0.0,38.92,39.72,0.0,1.0,2.6483,
72.1523,2.713,0.0,40.17,40.962,0.0,1.0,2.713,
72.4023,2.7797,0.0,41.416,42.191,0.0,1.0,2.7797,
72.6523,2.8425,0.0,42.666,43.433,0.0,1.0,2.8425,
72.9023,2.906,0.0,43.912,44.666,0.0,1.0,2.906,
73.1523,2.9797,0.0,45.162,45.908,0.0,1.0,2.9797,
73.4023,3.0465,0.0,46.408,47.145,0.0,1.0,3.0465,
73.6523,3.1134,0.0,47.658,48.383,0.0,1.0,3.1134,
73.9023,3.1814,0.0,48.908,49.625,0.0,1.0,3.1814,
74.1523,3.2513,0.0,50.154,50.862,0.0,1.0,3.2513,
74.4023,3.3162,0.0,51.404,52.104,0.0,1.0,3.3162,
74.6523,3.383,0.0,52.65,53.345,0.0,1.0,3.383,
74.9023,3.4536,0.0,53.9,54.587,0.0,1.0,3.4536,
75.1523,3.5215,0.0,55.145,55.825,0.0,1.0,3.5215,
75.4023,3.5881,0.0,56.395,57.07,0.0,1.0,3.5881,
75.6523,3.656,0.0,57.641,58.312,0.0,1.0,3.656,
75.9023,3.7235,0.0,58.891,59.554,0.0,1.0,3.7235,
76.1523,3.7955,0.0,60.137,60.795,0.0,1.0,3.7955,
76.4023,3.8607,0.0,61.387,62.037,0.0,1.0,3.8607,
76.6523,3.9323,0.0,62.633,63.283,0.0,1.0,3.9323,
76.9023,4.0009,0.0,63.883,64.525,0.0,1.0,4.0009,
77.1523,4.0708,0.0,65.129,65.775,0.0,1.0,4.0708,
77.4023,4.1417,0.0,66.379,67.016,0.0,1.0,4.1417,
77.6523,4.212,0.0,67.625,68.266,0.0,1.0,4.212,
77.9023,4.2822,0.0,68.875,69.508,0.0,1.0,4.2822,
78.1523,4.3568,0.0,70.12,70.75,0.0,1.0,4.3568,
78.4023,4.4319,0.0,71.37,72.0,0.0,1.0,4.4319,
78.6523,4.5042,0.0,72.616,73.241,0.0,1.0,4.5042,
78.9023,4.574,0.0,73.866,74.487,0.0,1.0,4.574,
79.1523,4.6476,0.0,75.112,75.733,0.0,1.0,4.6476,
79.4023,4.7271,0.0,76.362,76.983,0.0,1.0,4.7271,
79.6523,4.8039,0.0,77.608,78.233,0.0,1.0,4.8039,
79.9023,4.8825,0.0,78.858,79.47,0.0,1.0,4.8825,
80.1523,4.9582,0.0,80.104,80.716,0.0,1.0,4.9582,
80.4023,5.0329,0.0,81.354,81.966,0.0,1.0,5.0329,
80.6523,5.1078,0.0,82.6,83.212,0.0,1.0,5.1078,
80.9023,5.1883,0.0,83.85,84.462,0.0,1.0,5.1883,
81.1523,5.2634,0.0,85.095,85.704,0.0,1.0,5.2634,
81.4023,5.3438,0.0,86.345,86.941,0.0,1.0,5.3438,
81.6523,5.4241,0.0,87.591,88.183,0.0,1.0,5.4241,
81.9023,5.5033,0.0,88.841,89.425,0.0,1.0,5.5033,
82.1523,5.5844,0.0,90.087,90.67,0.0,1.0,5.5844,
82.4023,5.6695,0.0,91.337,91.908,0.0,1.0,5.6695,
82.6523,5.7514,0.0,92.583,93.154,0.0,1.0,5.7514,
82.9023,5.8311,0.0,93.833,94.395,0.0,1.0,5.8311,
83.1523,5.9134,0.0,95.083,95.641,0.0,1.0,5.9134,
83.4023,5.9964,0.0,96.329,96.887,0.0,1.0,5.9964,
83.6523,6.0807,0.0,97.579,98.125,0.0,1.0,6.0807,
83.9023,6.1697,0.0,98.825,99.37,0.0,1.0,6.1697,
84.1523,6.2564,0.0,100.075,100.612,0.0,1.0,6.2564,
84.4023,6.3393,0.0,101.32,101.862,0.0,1.0,6.3393,
84.6523,6.4234,0.0,102.57,103.108,0.0,1.0,6.4234,
84.9023,6.5174,0.0,103.816,104.354,0.0,1.0,6.5174,
85.1523,6.6111,0.0,105.066,105.595,0.0,1.0,6.6111,
85.4023,6.7091,0.0,106.312,106.833,0.0,1.0,6.7091,
85.6523,6.8044,0.0,107.562,108.079,0.0,1.0,6.8044,
85.9023,6.9048,0.0,108.808,109.325,0.0,1.0,6.9048,
86.1523,7.0067,0.0,110.058,110.57,0.0,1.0,7.0067,
86.4023,7.1099,0.0,111.304,111.82,0.0,1.0,7.1099,
86.6523,7.2293,0.0,112.554,113.058,0.0,1.0,7.2293,
86.9023,7.3497,0.0,113.8,114.308,0.0,1.0,7.3497,
87.1523,7.4677,0.0,115.05,115.545,0.0,1.0,7.4677,
87.4023,7.6248,0.0,116.295,116.791,0.0,1.0,7.6248,
87.6523,7.7718,0.0,117.545,118.041,0.0,1.0,7.7718,
87.9023,7.9776,0.0,118.791,119.283,0.0,1.0,7.9776,
88.1523,8.202,0.0,120.041,120.529,0.0,1.0,8.202,
88.4023,8.4778,0.0,121.287,121.775,0.0,1.0,8.4778,
88.6523,8.817,0.0,122.537,123.02,0.0,1.0,8.817,
88.9023,9.2452,0.0,123.783,124.266,0.0,1.0,9.2452,
89.1523,9.7577,0.0,125.033,125.512,0.0,1.0,9.7577,
89.4023,10.3855,0.0,126.279,126.762,0.0,1.0,10.3855,
89.6523,11.0679,0.0,127.529,128.004,0.0,1.0,11.0679,
89.9023,11.7465,0.0,128.775,129.254,0.0,1.0,11.7465,
90.1523,12.203,0.0,130.025,130.495,0.0,1.0,12.203,
90.4023,10.5503,0.0,131.27,131.75,0.0,1.0,10.5503,
90.6523,8.1403,0.0,132.52,133.0,0.0,1.0,8.1403,
90.9023,8.205,0.0,133.766,134.241,0.0,1.0,8.205,
91.1523,8.2849,0.0,135.016,135.491,0.0,1.0,8.2849,
91.4023,8.3697,0.0,136.262,136.737,0.0,1.0,8.3697,
91.6523,8.4473,0.0,137.512,137.991,0.0,1.0,8.4473,
91.9023,8.5357,0.0,138.762,139.237,0.0,1.0,8.5357,
92.1523,8.6187,0.0,140.008,140.483,0.0,1.0,8.6187,
92.4023,8.6974,0.0,141.258,141.729,0.0,1.0,8.6974,
92.6523,8.7837,0.0,142.504,142.966,0.0,1.0,8.7837,
92.9023,8.8578,0.0,143.754,144.212,0.0,1.0,8.8578,
93.1523,8.943,0.0,145.0,145.458,0.0,1.0,8.943,
93.4023,9.0274,0.0,146.25,146.708,0.0,1.0,9.0274,
93.6523,9.1106,0.0,147.495,147.954,0.0,1.0,9.1106,
93.9023,9.191,0.0,148.745,149.195,0.0,1.0,9.191,
94.1523,9.2802,0.0,149.991,150.437,0.0,1.0,9.2802,
94.4023,9.3661,0.0,151.241,151.683,0.0,1.0,9.3661,
94.6523,9.4518,0.0,152.487,152.925,0.0,1.0,9.4518,
94.9023,9.5356,0.0,153.737,154.17,0.0,1.0,9.5356,
95.1523,9.6225,0.0,154.983,155.416,0.0,1.0,9.6225,
95.4023,9.7119,0.0,156.233,156.662,0.0,1.0,9.7119,
95.6523,9.7946,0.0,157.479,157.908,0.0,1.0,9.7946,
95.9023,9.8841,0.0,158.729,159.154,0.0,1.0,9.8841,
96.1523,9.9665,0.0,159.975,160.404,0.0,1.0,9.9665,
96.4023,10.0551,0.0,161.225,161.65,0.0,1.0,10.0551,
96.6523,10.1339,0.0,162.47,162.891,0.0,1.0,10.1339,
96.9023,10.2285,0.0,163.72,164.145,0.0,1.0,10.2285,
97.1523,10.3172,0.0,164.966,165.391,0.0,1.0,10.3172,
97.4023,10.4028,0.0,166.216,166.637,0.0,1.0,10.4028,
97.6523,10.4914,0.0,167.462,167.887,0.0,1.0,10.4914,
97.9023,10.5841,0.0,168.712,169.137,0.0,1.0,10.5841,
98.1523,10.6707,0.0,169.958,170.379,0.0,1.0,10.6707,
98.4023,10.7621,0.0,171.208,171.625,0.0,1.0,10.7621,
98.6523,10.8507,0.0,172.454,172.866,0.0,1.0,10.8507,
98.9023,10.9388,0.0,173.704,174.12,0.0,1.0,10.9388,
99.1523,11.0289,0.0,174.95,175.37,0.0,1.0,11.0289,
99.4023,11.1177,0.0,176.2,176.612,0.0,1.0,11.1177,
99.6523,11.2097,0.0,177.445,177.858,0.0,1.0,11.2097,
99.9023,11.3025,0.0,178.695,179.104,0.0,1.0,11.3025,
100.152,11.3932,0.0,179.941,180.35,0.0,1.0,11.3932,
100.402,11.4863,0.0,181.191,181.6,0.0,1.0,11.4863,
100.652,11.5752,0.0,182.441,182.845,0.0,1.0,11.5752,
100.902,11.6666,0.0,183.687,184.095,0.0,1.0,11.6666,
101.152,11.7554,0.0,184.937,185.341,0.0,1.0,11.7554,
101.402,11.8496,0.0,186.183,186.595,0.0,1.0,11.8496,
101.652,11.942,0.0,187.433,187.837,0.0,1.0,11.942,
101.902,12.0343,0.0,188.679,189.087,0.0,1.0,12.0343,
102.152,12.1269,0.0,189.929,190.337,0.0,1.0,12.1269,
102.402,12.2167,0.0,191.175,191.583,0.0,1.0,12.2167,
102.652,12.3105,0.0,192.425,192.833,0.0,1.0,12.3105,
102.902,12.4058,0.0,193.67,194.083,0.0,1.0,12.4058,
103.152,12.4953,0.0,194.92,195.329,0.0,1.0,12.4953,
103.402,12.5897,0.0,196.166,196.575,0.0,1.0,12.5897,
103.652,12.683,0.0,197.416,197.816,0.0,1.0,12.683,
103.902,12.779,0.0,198.662,199.066,0.0,1.0,12.779,
104.152,12.8738,0.0,199.912,200.308,0.0,1.0,12.8738,
104.402,11.5745,0.0,198.837,199.5,0.0,1.0,11.5745,
104.652,11.6,0.0,197.591,198.258,0.0,1.0,11.6,
104.902,11.505,0.0,196.341,197.012,0.0,1.0,11.505,
105.152,11.4099,0.0,195.095,195.77,0.0,1.0,11.4099,
105.402,11.3188,0.0,193.845,194.525,0.0,1.0,11.3188,
105.652,11.2246,0.0,192.6,193.283,0.0,1.0,11.2246,
105.902,11.1315,0.0,191.35,192.033,0.0,1.0,11.1315,
106.152,11.0411,0.0,190.104,190.779,0.0,1.0,11.0411,
106.402,10.9512,0.0,188.854,189.533,0.0,1.0,10.9512,
106.652,10.8638,0.0,187.608,188.287,0.0,1.0,10.8638,
106.902,10.7767,0.0,186.358,187.041,0.0,1.0,10.7767,
107.152,10.6915,0.0,185.112,185.791,0.0,1.0,10.6915,
107.402,10.6082,0.0,183.862,184.541,0.0,1.0,10.6082,
107.652,10.5202,0.0,182.616,183.295,0.0,1.0,10.5202,
107.902,10.4369,0.0,181.366,182.037,0.0,1.0,10.4369,
108.152,10.3516,0.0,180.12,180.8,0.0,1.0,10.3516,
108.402,10.267,0.0,178.87,179.554,0.0,1.0,10.267,
108.652,10.1792,0.0,177.625,178.308,0.0,1.0,10.1792,
108.902,10.0976,0.0,176.375,177.062,0.0,1.0,10.0976,
109.152,10.0136,0.0,175.129,175.808,0.0,1.0,10.0136,
109.402,9.9306,0.0,173.879,174.566,0.0,1.0,9.9306,
109.652,9.8486,0.0,172.633,173.32,0.0,1.0,9.8486,
109.902,9.769,0.0,171.383,172.075,0.0,1.0,9.769,
110.152,9.6843,0.0,170.137,170.825,0.0,1.0,9.6843,
110.402,9.6008,0.0,168.887,169.575,0.0,1.0,9.6008,
110.652,9.5193,0.0,167.641,168.329,0.0,1.0,9.5193,
110.902,9.4397,0.0,166.391,167.083,0.0,1.0,9.4397,
111.152,9.3558,0.0,165.145,165.837,0.0,1.0,9.3558,
111.402,9.2739,0.0,163.895,164.587,0.0,1.0,9.2739,
111.652,9.1947,0.0,162.645,163.341,0.0,1.0,9.1947,
111.902,9.1118,0.0,161.4,162.095,0.0,1.0,9.1118,
112.152,9.0303,0.0,160.15,160.845,0.0,1.0,9.0303,
112.402,8.9505,0.0,158.904,159.6,0.0,1.0,8.9505,
112.652,8.8705,0.0,157.654,158.35,0.0,1.0,8.8705,
112.902,8.7877,0.0,156.408,157.108,0.0,1.0,8.7877,
113.152,8.7103,0.0,155.158,155.858,0.0,1.0,8.7103,
113.402,8.6327,0.0,153.912,154.608,0.0,1.0,8.6327,
113.652,8.5536,0.0,152.662,153.362,0.0,1.0,8.5536,
113.902,8.4733,0.0,151.416,152.12,0.0,1.0,8.4733,
114.152,8.3966,0.0,150.166,150.879,0.0,1.0,8.3966,
114.402,8.3194,0.0,148.92,149.633,0.0,1.0,8.3194,
114.652,8.2396,0.0,147.67,148.387,0.0,1.0,8.2396,
114.902,8.1628,0.0,146.425,147.141,0.0,1.0,8.1628,
115.152,8.0849,0.0,145.175,145.895,0.0,1.0,8.0849,
115.402,8.0071,0.0,143.929,144.65,0.0,1.0,8.0071,
115.652,7.9283,0.0,142.679,143.404,0.0,1.0,7.9283,
115.902,7.8537,0.0,141.433,142.166,0.0,1.0,7.8537,
116.152,7.7751,0.0,140.183,140.925,0.0,1.0,7.7751,
116.402,7.6966,0.0,138.937,139.67,0.0,1.0,7.6966,
116.652,7.6202,0.0,137.687,138.429,0.0,1.0,7.6202,
116.902,7.5428,0.0,136.441,137.179,0.0,1.0,7.5428,
117.152,7.466,0.0,135.191,135.933,0.0,1.0,7.466,
117.402,7.3918,0.0,133.945,134.679,0.0,1.0,7.3918,
117.652,7.3161,0.0,132.695,133.433,0.0,1.0,7.3161,
117.902,7.2415,0.0,131.45,132.191,0.0,1.0,7.2415,
118.152,7.1668,0.0,130.2,130.941,0.0,1.0,7.1668,
118.402,7.0937,0.0,128.954,129.695,0.0,1.0,7.0937,
118.652,7.0196,0.0,127.704,128.445,0.0,1.0,7.0196,
118.902,6.943,0.0,126.458,127.204,0.0,1.0,6.943,
119.152,6.8694,0.0,125.208,125.954,0.0,1.0,6.8694,
119.402,6.7929,0.0,123.962,124.704,0.0,1.0,6.7929,
119.652,6.7081,0.0,122.712,123.462,0.0,1.0,6.7081,
119.902,6.2368,0.0,121.466,122.216,0.0,1.0,6.2368,
120.152,3.3117,0.0,120.216,120.979,0.0,1.0,3.3117,
120.402,0.7986,0.0,118.966,119.729,0.0,1.0,0.7986,
120.652,1.9718,0.0,117.72,118.479,0.0,1.0,1.9718,
120.902,3.3643,0.0,116.47,117.237,0.0,1.0,3.3643,
121.152,4.3667,0.0,115.225,115.987,0.0,1.0,4.3667,
121.402,4.8757,0.0,113.975,114.745,0.0,1.0,4.8757,
121.652,5.1215,0.0,112.729,113.495,0.0,1.0,5.1215,
121.902,5.2473,0.0,111.479,112.245,0.0,1.0,5.2473,
122.152,5.3096,0.0,110.233,111.008,0.0,1.0,5.3096,
122.402,5.3351,0.0,108.983,109.762,0.0,1.0,5.3351,
122.652,5.3401,0.0,107.737,108.516,0.0,1.0,5.3401,
122.902,5.3323,0.0,106.487,107.27,0.0,1.0,5.3323,
123.152,5.3127,0.0,105.241,106.025,0.0,1.0,5.3127,
123.402,5.288,0.0,103.991,104.783,0.0,1.0,5.288,
123.652,5.253,0.0,102.745,103.541,0.0,1.0,5.253,
123.902,5.2166,0.0,101.495,102.3,0.0,1.0,5.2166,
124.152,5.1751,0.0,100.25,101.054,0.0,1.0,5.1751,
124.402,5.1296,0.0,99.0,99.808,0.0,1.0,5.1296,
124.652,5.0814,0.0,97.754,98.562,0.0,1.0,5.0814,
124.902,5.031,0.0,96.504,97.316,0.0,1.0,5.031,
125.152,4.9792,0.0,95.258,96.075,0.0,1.0,4.9792,
125.402,4.9262,0.0,94.008,94.833,0.0,1.0,4.9262,
125.652,4.8724,0.0,92.762,93.591,0.0,1.0,4.8724,
125.902,4.8182,0.0,91.512,92.341,0.0,1.0,4.8182,
126.152,4.7592,0.0,90.266,91.095,0.0,1.0,4.7592,
126.402,4.701,0.0,89.016,89.854,0.0,1.0,4.701,
126.652,4.6399,0.0,87.77,88.612,0.0,1.0,4.6399,
126.902,4.5794,0.0,86.52,87.37,0.0,1.0,4.5794,
127.152,4.5209,0.0,85.275,86.133,0.0,1.0,4.5209,
127.402,4.4621,0.0,84.025,84.887,0.0,1.0,4.4621,
127.652,4.4038,0.0,82.779,83.645,0.0,1.0,4.4038,
127.902,4.3379,0.0,81.529,82.395,0.0,1.0,4.3379,
128.152,4.2868,0.0,80.283,81.158,0.0,1.0,4.2868,
128.402,4.2381,0.0,79.033,79.904,0.0,1.0,4.2381,
128.652,4.1883,0.0,77.787,78.658,0.0,1.0,4.1883,
128.902,4.1372,0.0,76.537,77.412,0.0,1.0,4.1372,
129.152,4.0848,0.0,75.291,76.166,0.0,1.0,4.0848,
129.402,4.0318,0.0,74.041,74.92,0.0,1.0,4.0318,
129.652,3.977,0.0,72.791,73.675,0.0,1.0,3.977,
129.902,3.9208,0.0,71.545,72.433,0.0,1.0,3.9208,
130.152,3.8648,0.0,70.295,71.191,0.0,1.0,3.8648,
130.402,3.8082,0.0,69.05,69.945,0.0,1.0,3.8082,
130.652,3.7511,0.0,67.8,68.704,0.0,1.0,3.7511,
130.902,3.692,0.0,66.554,67.458,0.0,1.0,3.692,
131.152,3.6347,0.0,65.304,66.22,0.0,1.0,3.6347,
131.402,3.5741,0.0,64.058,64.97,0.0,1.0,3.5741,
131.652,3.5154,0.0,62.808,63.729,0.0,1.0,3.5154,
131.902,3.4581,0.0,61.562,62.487,0.0,1.0,3.4581,
132.152,3.4014,0.0,60.312,61.245,0.0,1.0,3.4014,
132.402,3.3419,0.0,59.066,60.008,0.0,1.0,3.3419,
132.652,3.2848,0.0,57.816,58.77,0.0,1.0,3.2848,
132.902,3.2269,0.0,56.57,57.529,0.0,1.0,3.2269,
133.152,3.1703,0.0,55.32,56.287,0.0,1.0,3.1703,
133.402,3.1133,0.0,54.075,55.054,0.0,1.0,3.1133,
133.652,3.0558,0.0,52.825,53.812,0.0,1.0,3.0558,
133.902,2.9997,0.0,51.579,52.566,0.0,1.0,2.9997,
134.152,2.9446,0.0,50.329,51.333,0.0,1.0,2.9446,
134.402,2.8891,0.0,49.083,50.095,0.0,1.0,2.8891,
134.652,2.8359,0.0,47.833,48.862,0.0,1.0,2.8359,
134.902,2.7789,0.0,46.587,47.62,0.0,1.0,2.7789,
135.152,2.7234,0.0,45.337,46.387,0.0,1.0,2.7234,
135.402,2.6703,0.0,44.091,45.154,0.0,1.0,2.6703,
135.652,2.6167,0.0,42.841,43.916,0.0,1.0,2.6167,
135.902,2.5639,0.0,41.595,42.683,0.0,1.0,2.5639,
136.152,2.5118,0.0,40.345,41.454,0.0,1.0,2.5118,
136.402,2.4594,0.0,39.1,40.225,0.0,1.0,2.4594,
136.652,2.4073,0.0,37.85,38.991,0.0,1.0,2.4073,
136.902,2.3566,0.0,36.604,37.762,0.0,1.0,2.3566,
137.152,2.3098,0.0,35.354,36.533,0.0,1.0,2.3098,
137.402,2.2583,0.0,34.108,35.304,0.0,1.0,2.2583,
137.652,2.2123,0.0,32.858,34.083,0.0,1.0,2.2123,
137.902,2.1657,0.0,31.612,32.858,0.0,1.0,2.1657,
138.152,2.1246,0.0,30.362,31.629,0.0,1.0,2.1246,
138.402,2.0425,0.0,30.879,31.625,0.0,1.0,2.0425,
138.652,2.663,0.0,32.129,32.85,0.0,1.0,2.663,
138.902,2.6946,0.0,33.375,34.083,0.0,1.0,2.6946,
139.152,2.7564,0.0,34.625,35.316,0.0,1.0,2.7564,
139.402,2.8229,0.0,35.87,36.562,0.0,1.0,2.8229,
139.652,2.8909,0.0,37.12,37.795,0.0,1.0,2.8909,
139.902,2.9563,0.0,38.366,39.037,0.0,1.0,2.9563,
140.152,3.023,0.0,39.616,40.27,0.0,1.0,3.023,
140.402,3.0886,0.0,40.862,41.516,0.0,1.0,3.0886,
140.652,3.1573,0.0,42.112,42.741,0.0,1.0,3.1573,
140.902,3.2222,0.0,43.358,43.987,0.0,1.0,3.2222,
141.152,3.2884,0.0,44.608,45.237,0.0,1.0,3.2884,
141.402,3.3552,0.0,45.854,46.47,0.0,1.0,3.3552,
141.652,3.4202,0.0,47.104,47.716,0.0,1.0,3.4202,
141.902,3.4837,0.0,48.354,48.958,0.0,1.0,3.4837,
142.152,3.5503,0.0,49.6,50.195,0.0,1.0,3.5503,
142.402,3.6159,0.0,50.85,51.441,0.0,1.0,3.6159,
142.652,3.6828,0.0,52.095,52.679,0.0,1.0,3.6828,
142.902,3.7479,0.0,53.345,53.92,0.0,1.0,3.7479,
143.152,3.8147,0.0,54.591,55.158,0.0,1.0,3.8147,
143.402,3.8827,0.0,55.841,56.408,0.0,1.0,3.8827,
143.652,3.9499,0.0,57.087,57.658,0.0,1.0,3.9499,
143.902,4.0168,0.0,58.337,58.9,0.0,1.0,4.0168,
144.152,4.0837,0.0,59.583,60.141,0.0,1.0,4.0837,
144.402,4.15,0.0,60.833,61.391,0.0,1.0,4.15,
144.652,4.2177,0.0,62.079,62.629,0.0,1.0,4.2177,
144.902,4.2836,0.0,63.329,63.879,0.0,1.0,4.2836,
145.152,4.3494,0.0,64.575,65.125,0.0,1.0,4.3494,
145.402,4.4168,0.0,65.825,66.37,0.0,1.0,4.4168,
145.652,4.4824,0.0,67.07,67.62,0.0,1.0,4.4824,
145.902,4.5486,0.0,68.32,68.866,0.0,1.0,4.5486,
146.152,4.6198,0.0,69.566,70.112,0.0,1.0,4.6198,
146.402,4.6869,0.0,70.816,71.358,0.0,1.0,4.6869,
146.652,4.7587,0.0,72.062,72.608,0.0,1.0,4.7587,
146.902,4.8216,0.0,73.312,73.858,0.0,1.0,4.8216,
147.152,4.8924,0.0,74.558,75.104,0.0,1.0,4.8924,
147.402,4.9555,0.0,75.808,76.354,0.0,1.0,4.9555,
147.652,5.0282,0.0,77.054,77.6,0.0,1.0,5.0282,
147.902,5.0984,0.0,78.304,78.85,0.0,1.0,5.0984,
148.152,5.1671,0.0,79.55,80.104,0.0,1.0,5.1671,
148.402,5.2338,0.0,80.8,81.35,0.0,1.0,5.2338,
148.652,5.3052,0.0,82.045,82.6,0.0,1.0,5.3052,
148.902,5.3746,0.0,83.295,83.845,0.0,1.0,5.3746,
149.152,5.4435,0.0,84.541,85.091,0.0,1.0,5.4435,
149.402,5.5118,0.0,85.791,86.337,0.0,1.0,5.5118,
149.652,5.5912,0.0,87.037,87.579,0.0,1.0,5.5912,
149.902,5.6691,0.0,88.287,88.825,0.0,1.0,5.6691,
150.152,5.7462,0.0,89.533,90.062,0.0,1.0,5.7462,
150.402,5.8231,0.0,90.783,91.304,0.0,1.0,5.8231,
150.652,5.9001,0.0,92.033,92.55,0.0,1.0,5.9001,
150.902,5.9749,0.0,93.279,93.8,0.0,1.0,5.9749,
151.152,6.044,0.0,94.529,95.05,0.0,1.0,6.044,
151.402,6.1165,0.0,95.775,96.291,0.0,1.0,6.1165,
151.652,6.1891,0.0,97.025,97.541,0.0,1.0,6.1891,
151.902,6.2676,0.0,98.27,98.779,0.0,1.0,6.2676,
152.152,6.3471,0.0,99.52,100.033,0.0,1.0,6.3471,
152.402,6.4193,0.0,100.766,101.279,0.0,1.0,6.4193,
152.652,6.5025,0.0,102.016,102.525,0.0,1.0,6.5025,
152.902,6.5776,0.0,103.262,103.775,0.0,1.0,6.5776,
153.152,6.6577,0.0,104.512,105.02,0.0,1.0,6.6577,
153.402,6.7389,0.0,105.758,106.27,0.0,1.0,6.7389,
153.652,6.825,0.0,107.008,107.508,0.0,1.0,6.825,
153.902,6.9105,0.0,108.254,108.762,0.0,1.0,6.9105,
154.152,7.003,0.0,109.504,110.012,0.0,1.0,7.003,
154.402,7.0959,0.0,110.75,111.254,0.0,1.0,7.0959,
154.652,7.1867,0.0,112.0,112.504,0.0,1.0,7.1867,
154.902,7.2945,0.0,113.245,113.75,0.0,1.0,7.2945,
155.152,7.4075,0.0,114.495,115.0,0.0,1.0,7.4075,
155.402,7.5332,0.0,115.741,116.25,0.0,1.0,7.5332,
155.652,7.673,0.0,116.991,117.495,0.0,1.0,7.673,
155.902,7.8411,0.0,118.237,118.745,0.0,1.0,7.8411,
156.152,8.0362,0.0,119.487,119.983,0.0,1.0,8.0362,
156.402,8.2794,0.0,120.733,121.241,0.0,1.0,8.2794,
156.652,8.5791,0.0,121.983,122.483,0.0,1.0,8.5791,
156.902,8.9465,0.0,123.229,123.733,0.0,1.0,8.9465,
157.152,9.4313,0.0,124.479,124.979,0.0,1.0,9.4313,
157.402,10.0016,0.0,125.725,126.22,0.0,1.0,10.0016,
157.652,10.6442,0.0,126.975,127.47,0.0,1.0,10.6442,
157.902,11.3285,0.0,128.22,128.712,0.0,1.0,11.3285,
158.152,12.0203,0.0,129.47,129.966,0.0,1.0,12.0203,
158.402,11.6035,0.0,130.716,131.216,0.0,1.0,11.6035,
158.652,8.157,0.0,131.966,132.462,0.0,1.0,8.157,
158.902,8.0606,0.0,133.212,133.712,0.0,1.0,8.0606,
159.152,8.1405,0.0,134.462,134.958,0.0,1.0,8.1405,
159.402,8.2184,0.0,135.708,136.204,0.0,1.0,8.2184,
159.652,8.3007,0.0,136.958,137.454,0.0,1.0,8.3007,
159.902,8.3807,0.0,138.208,138.708,0.0,1.0,8.3807,
160.152,8.4612,0.0,139.454,139.954,0.0,1.0,8.4612,
160.402,8.5398,0.0,140.704,141.2,0.0,1.0,8.5398,
160.652,8.6217,0.0,141.95,142.445,0.0,1.0,8.6217,
160.902,8.6934,0.0,143.2,143.683,0.0,1.0,8.6934,
161.152,8.772,0.0,144.445,144.929,0.0,1.0,8.772,
161.402,8.8599,0.0,145.695,146.175,0.0,1.0,8.8599,
161.652,8.949,0.0,146.941,147.42,0.0,1.0,8.949,
161.902,9.026,0.0,148.191,148.666,0.0,1.0,9.026,
162.152,9.1152,0.0,149.437,149.912,0.0,1.0,9.1152,
162.402,9.1932,0.0,150.687,151.154,0.0,1.0,9.1932,
162.652,9.2748,0.0,151.933,152.4,0.0,1.0,9.2748,
162.902,9.3579,0.0,153.183,153.641,0.0,1.0,9.3579,
163.152,9.4339,0.0,154.429,154.887,0.0,1.0,9.4339,
163.402,9.5258,0.0,155.679,156.137,0.0,1.0,9.5258,
163.652,9.605,0.0,156.925,157.383,0.0,1.0,9.605,
163.902,9.686,0.0,158.175,158.633,0.0,1.0,9.686,
164.152,9.7708,0.0,159.42,159.883,0.0,1.0,9.7708,
164.402,9.8496,0.0,160.67,161.133,0.0,1.0,9.8496,
164.652,9.9301,0.0,161.916,162.375,0.0,1.0,9.9301,
164.902,10.0106,0.0,163.166,163.62,0.0,1.0,10.0106,
165.152,10.0927,0.0,164.412,164.87,0.0,1.0,10.0927,
165.402,10.166,0.0,165.662,166.12,0.0,1.0,10.166,
165.652,10.2531,0.0,166.908,167.366,0.0,1.0,10.2531,
165.902,10.3339,0.0,168.158,168.616,0.0,1.0,10.3339,
166.152,10.4166,0.0,169.404,169.866,0.0,1.0,10.4166,
166.402,10.5071,0.0,170.654,171.108,0.0,1.0,10.5071,
166.652,10.5985,0.0,171.9,172.354,0.0,1.0,10.5985,
166.902,10.6873,0.0,173.15,173.604,0.0,1.0,10.6873,
167.152,10.7707,0.0,174.395,174.854,0.0,1.0,10.7707,
167.402,10.8506,0.0,175.645,176.1,0.0,1.0,10.8506,
167.652,10.9421,0.0,176.891,177.345,0.0,1.0,10.9421,
167.902,11.0297,0.0,178.141,178.595,0.0,1.0,11.0297,
168.152,11.1107,0.0,179.387,179.837,0.0,1.0,11.1107,
168.402,11.2012,0.0,180.637,181.087,0.0,1.0,11.2012,
168.652,11.2856,0.0,181.887,182.337,0.0,1.0,11.2856,
168.902,11.3694,0.0,183.133,183.587,0.0,1.0,11.3694,
169.152,11.4523,0.0,184.383,184.837,0.0,1.0,11.4523,
169.402,11.5359,0.0,185.629,186.087,0.0,1.0,11.5359,
169.652,11.6218,0.0,186.879,187.337,0.0,1.0,11.6218,
169.902,11.7062,0.0,188.125,188.587,0.0,1.0,11.7062,
170.152,11.7883,0.0,189.375,189.833,0.0,1.0,11.7883,
170.402,11.8805,0.0,190.62,191.087,0.0,1.0,11.8805,
170.652,11.9617,0.0,191.87,192.333,0.0,1.0,11.9617,
170.902,12.0527,0.0,193.116,193.587,0.0,1.0,12.0527,
171.152,12.1338,0.0,194.366,194.829,0.0,1.0,12.1338,
171.402,12.2207,0.0,195.612,196.079,0.0,1.0,12.2207,
171.652,12.3135,0.0,196.862,197.32,0.0,1.0,12.3135,
171.902,12.4081,0.0,198.108,198.575,0.0,1.0,12.4081,
172.152,12.5001,0.0,199.358,199.816,0.0,1.0,12.5001,
172.402,11.864,0.0,199.391,200.108,0.0,1.0,11.864,
172.652,11.3017,0.0,198.145,198.875,0.0,1.0,11.3017,
172.902,11.2154,0.0,196.895,197.633,0.0,1.0,11.2154,
173.152,11.1152,0.0,195.65,196.383,0.0,1.0,11.1152,
173.402,11.0234,0.0,194.4,195.141,0.0,1.0,11.0234,
173.652,10.9298,0.0,193.154,193.9,0.0,1.0,10.9298,
173.902,10.8364,0.0,191.904,192.65,0.0,1.0,10.8364,
174.152,10.7481,0.0,190.658,191.404,0.0,1.0,10.7481,
174.402,10.6618,0.0,189.408,190.154,0.0,1.0,10.6618,
174.652,10.5589,0.0,188.162,188.908,0.0,1.0,10.5589,
174.902,10.4674,0.0,186.912,187.67,0.0,1.0,10.4674,
175.152,10.3806,0.0,185.666,186.412,0.0,1.0,10.3806,
175.402,10.2849,0.0,184.416,185.166,0.0,1.0,10.2849,
175.652,10.1922,0.0,183.17,183.92,0.0,1.0,10.1922,
175.902,10.1019,0.0,181.92,182.67,0.0,1.0,10.1019,
176.152,10.0182,0.0,180.675,181.42,0.0,1.0,10.0182,
176.402,9.9289,0.0,179.425,180.175,0.0,1.0,9.9289,
176.652,9.849,0.0,178.179,178.925,0.0,1.0,9.849,
176.902,9.7733,0.0,176.929,177.679,0.0,1.0,9.7733,
177.152,9.6994,0.0,175.683,176.437,0.0,1.0,9.6994,
177.402,9.6224,0.0,174.433,175.187,0.0,1.0,9.6224,
177.652,9.545,0.0,173.187,173.937,0.0,1.0,9.545,
177.902,9.4691,0.0,171.937,172.695,0.0,1.0,9.4691,
178.152,9.3917,0.0,170.691,171.441,0.0,1.0,9.3917,
178.402,9.3049,0.0,169.441,170.195,0.0,1.0,9.3049,
178.652,9.228,0.0,168.195,168.95,0.0,1.0,9.228,
178.902,9.1448,0.0,166.945,167.7,0.0,1.0,9.1448,
179.152,9.0584,0.0,165.7,166.458,0.0,1.0,9.0584,
179.402,8.975,0.0,164.45,165.208,0.0,1.0,8.975,
179.652,8.8946,0.0,163.2,163.962,0.0,1.0,8.8946,
179.902,8.8073,0.0,161.954,162.712,0.0,1.0,8.8073,
180.152,8.7262,0.0,160.704,161.475,0.0,1.0,8.7262,
180.402,8.6416,0.0,159.458,160.225,0.0,1.0,8.6416,
180.652,8.5515,0.0,158.208,158.983,0.0,1.0,8.5515,
180.902,8.4686,0.0,156.962,157.733,0.0,1.0,8.4686,
181.152,8.389,0.0,155.712,156.483,0.0,1.0,8.389,
181.402,8.306,0.0,154.466,155.245,0.0,1.0,8.306,
181.652,8.225,0.0,153.216,153.995,0.0,1.0,8.225,
181.902,8.1444,0.0,151.97,152.754,0.0,1.0,8.1444,
182.152,8.0643,0.0,150.72,151.512,0.0,1.0,8.0643,
182.402,7.9833,0.0,149.475,150.266,0.0,1.0,7.9833,
182.652,7.8972,0.0,148.225,149.025,0.0,1.0,7.8972,
182.902,7.8134,0.0,146.979,147.783,0.0,1.0,7.8134,
183.152,7.733,0.0,145.729,146.537,0.0,1.0,7.733,
183.402,7.6553,0.0,144.483,145.291,0.0,1.0,7.6553,
183.652,7.5727,0.0,143.233,144.045,0.0,1.0,7.5727,
183.902,7.4936,0.0,141.987,142.804,0.0,1.0,7.4936,
184.152,7.4141,0.0,140.737,141.554,0.0,1.0,7.4141,
184.402,7.3389,0.0,139.491,140.32,0.0,1.0,7.3389,
184.652,7.2578,0.0,138.241,139.07,0.0,1.0,7.2578,
184.902,7.1784,0.0,136.995,137.825,0.0,1.0,7.1784,
185.152,7.1018,0.0,135.745,136.575,0.0,1.0,7.1018,
185.402,7.0258,0.0,134.5,135.325,0.0,1.0,7.0258,
185.652,6.9507,0.0,133.25,134.079,0.0,1.0,6.9507,
185.902,6.8748,0.0,132.004,132.85,0.0,1.0,6.8748,
186.152,6.7944,0.0,130.754,131.583,0.0,1.0,6.7944,
186.402,6.7226,0.0,129.508,130.341,0.0,1.0,6.7226,
186.652,6.6499,0.0,128.258,129.091,0.0,1.0,6.6499,
186.902,6.578,0.0,127.012,127.85,0.0,1.0,6.578,
187.152,6.4971,0.0,125.762,126.595,0.0,1.0,6.4971,
187.402,6.4194,0.0,124.516,125.358,0.0,1.0,6.4194,
187.652,6.3412,0.0,123.266,124.112,0.0,1.0,6.3412,
187.902,6.2186,0.0,122.02,122.862,0.0,1.0,6.2186,
188.152,4.9794,0.0,120.77,121.625,0.0,1.0,4.9794,
188.402,1.2346,0.0,119.52,120.383,0.0,1.0,1.2346,
188.652,0.7718,0.0,118.275,119.137,0.0,1.0,0.7718,
188.902,2.1785,0.0,117.025,117.887,0.0,1.0,2.1785,
189.152,3.4649,0.0,115.779,116.641,0.0,1.0,3.4649,
189.402,4.2269,0.0,114.529,115.4,0.0,1.0,4.2269,
189.652,4.5949,0.0,113.283,114.15,0.0,1.0,4.5949,
189.902,4.779,0.0,112.033,112.912,0.0,1.0,4.779,
190.152,4.8713,0.0,110.787,111.666,0.0,1.0,4.8713,
190.402,4.9156,0.0,109.537,110.42,0.0,1.0,4.9156,
190.652,4.9301,0.0,108.291,109.175,0.0,1.0,4.9301,
190.902,4.9273,0.0,107.041,107.929,0.0,1.0,4.9273,
191.152,4.917,0.0,105.795,106.687,0.0,1.0,4.917,
191.402,4.8957,0.0,104.545,105.445,0.0,1.0,4.8957,
191.652,4.8657,0.0,103.3,104.204,0.0,1.0,4.8657,
191.902,4.8302,0.0,102.05,102.958,0.0,1.0,4.8302,
192.152,4.788,0.0,100.804,101.716,0.0,1.0,4.788,
192.402,4.7507,0.0,99.554,100.466,0.0,1.0,4.7507,
192.652,4.7098,0.0,98.308,99.22,0.0,1.0,4.7098,
192.902,4.6628,0.0,97.058,97.975,0.0,1.0,4.6628,
193.152,4.6166,0.0,95.812,96.733,0.0,1.0,4.6166,
193.402,4.5654,0.0,94.562,95.487,0.0,1.0,4.5654,
193.652,4.5125,0.0,93.316,94.245,0.0,1.0,4.5125,
193.902,4.4616,0.0,92.066,93.004,0.0,1.0,4.4616,
194.152,4.4093,0.0,90.82,91.762,0.0,1.0,4.4093,
194.402,4.3557,0.0,89.57,90.516,0.0,1.0,4.3557,
194.652,4.2984,0.0,88.325,89.27,0.0,1.0,4.2984,
194.902,4.2431,0.0,87.075,88.033,0.0,1.0,4.2431,
195.152,4.1833,0.0,85.829,86.791,0.0,1.0,4.1833,
195.402,4.1263,0.0,84.579,85.554,0.0,1.0,4.1263,
195.652,4.0693,0.0,83.333,84.308,0.0,1.0,4.0693,
195.902,4.0138,0.0,82.083,83.058,0.0,1.0,4.0138,
196.152,3.9601,0.0,80.837,81.812,0.0,1.0,3.9601,
196.402,3.9028,0.0,79.587,80.566,0.0,1.0,3.9028,
196.652,3.8578,0.0,78.341,79.325,0.0,1.0,3.8578,
196.902,3.8204,0.0,77.091,78.075,0.0,1.0,3.8204,
197.152,3.7795,0.0,75.841,76.829,0.0,1.0,3.7795,
197.402,3.735,0.0,74.595,75.583,0.0,1.0,3.735,
197.652,3.6871,0.0,73.345,74.329,0.0,1.0,3.6871,
197.902,3.643,0.0,72.1,73.091,0.0,1.0,3.643,
198.152,3.5938,0.0,70.85,71.837,0.0,1.0,3.5938,
198.402,3.5437,0.0,69.604,70.595,0.0,1.0,3.5437,
198.652,3.4914,0.0,68.354,69.35,0.0,1.0,3.4914,
198.902,3.4405,0.0,67.108,68.104,0.0,1.0,3.4405,
199.152,3.3923,0.0,65.858,66.866,0.0,1.0,3.3923,
199.402,3.3393,0.0,64.612,65.616,0.0,1.0,3.3393,
199.652,3.2899,0.0,63.362,64.379,0.0,1.0,3.2899,
199.902,3.2355,0.0,62.116,63.133,0.0,1.0,3.2355,
200.152,3.1822,0.0,60.866,61.887,0.0,1.0,3.1822,
200.402,3.13,0.0,59.62,60.654,0.0,1.0,3.13,
200.652,3.0768,0.0,58.37,59.416,0.0,1.0,3.0768,
200.902,3.0268,0.0,57.125,58.17,0.0,1.0,3.0268,
201.152,2.9731,0.0,55.875,56.925,0.0,1.0,2.9731,
201.402,2.9243,0.0,54.629,55.687,0.0,1.0,2.9243,
201.652,2.8733,0.0,53.379,54.445,0.0,1.0,2.8733,
201.902,2.8234,0.0,52.133,53.204,0.0,1.0,2.8234,
202.152,2.7722,0.0,50.883,51.966,0.0,1.0,2.7722,
202.402,2.7199,0.0,49.637,50.729,0.0,1.0,2.7199,
202.652,2.6697,0.0,48.387,49.491,0.0,1.0,2.6697,
202.902,2.6184,0.0,47.141,48.262,0.0,1.0,2.6184,
203.152,2.5669,0.0,45.891,47.02,0.0,1.0,2.5669,
203.402,2.521,0.0,44.645,45.787,0.0,1.0,2.521,
203.652,2.4769,0.0,43.395,44.55,0.0,1.0,2.4769,
203.902,2.4242,0.0,42.15,43.316,0.0,1.0,2.4242,
204.152,2.3798,0.0,40.9,42.083,0.0,1.0,2.3798,
204.402,2.3338,0.0,39.654,40.854,0.0,1.0,2.3338,
204.652,2.2872,0.0,38.404,39.62,0.0,1.0,2.2872,
204.902,2.2396,0.0,37.158,38.391,0.0,1.0,2.2396,
205.152,2.1946,0.0,35.908,37.158,0.0,1.0,2.1946,
205.402,2.153,0.0,34.662,35.933,0.0,1.0,2.153,
205.652,2.1128,0.0,33.412,34.708,0.0,1.0,2.1128,
205.902,2.0775,0.0,32.166,33.479,0.0,1.0,2.0775,
206.152,2.0366,0.0,30.916,32.254,0.0,1.0,2.0366,
206.302,2.0151,0.0,30.166,31.516,0.0,1.0,2.0151,